onset	duration	sample	value	event_code	user_answer	correct_answer	target_count
0	n/a	0	break cnt	break cnt	n/a	n/a	8
29.76	n/a	14880	seqLearning_start	91	n/a	n/a	8
36.012	n/a	18006	learningBlock_1	31	n/a	n/a	8
36.044	n/a	18022	dot_no1_ON	11	n/a	n/a	8
36.634	n/a	18317	dot_no1_OFF	21	n/a	n/a	8
37.954	n/a	18977	dot_no6_ON	16	n/a	n/a	8
38.534	n/a	19267	dot_no6_OFF	26	n/a	n/a	8
39.854	n/a	19927	dot_no4_ON	14	n/a	n/a	8
40.434	n/a	20217	dot_no4_OFF	24	n/a	n/a	8
41.754	n/a	20877	dot_no2_ON	12	n/a	n/a	8
42.334	n/a	21167	dot_no2_OFF	22	n/a	n/a	8
43.664	n/a	21832	dot_no7_ON	17	n/a	n/a	8
44.244	n/a	22122	dot_no7_OFF	27	n/a	n/a	8
45.564	n/a	22782	dot_no3_ON	13	n/a	n/a	8
46.144	n/a	23072	dot_no3_OFF	23	n/a	n/a	8
47.464	n/a	23732	dot_no8_ON	18	n/a	n/a	8
48.044	n/a	24022	dot_no8_OFF	28	n/a	n/a	8
49.364	n/a	24682	dot_no5_ON	15	n/a	n/a	8
49.944	n/a	24972	dot_no5_OFF	25	n/a	n/a	8
51.264	n/a	25632	dot_no2_ON	12	n/a	n/a	8
51.844	n/a	25922	dot_no2_OFF	22	n/a	n/a	8
53.164	n/a	26582	dot_no7_ON	17	n/a	n/a	8
53.744	n/a	26872	dot_no7_OFF	27	7-1-6-3-4-2-5-8-8-3	1-6-4-2-7-3-8-5-2-7	8
99.818	n/a	49909	learningBlock_2	32	n/a	n/a	8
99.824	n/a	49912	dot_no1_ON	11	n/a	n/a	8
100.414	n/a	50207	dot_no1_OFF	21	n/a	n/a	8
101.734	n/a	50867	dot_no6_ON	16	n/a	n/a	8
102.316	n/a	51158	dot_no6_OFF	26	n/a	n/a	8
103.634	n/a	51817	dot_no4_ON	14	n/a	n/a	8
104.214	n/a	52107	dot_no4_OFF	24	n/a	n/a	8
105.534	n/a	52767	dot_no2_ON	12	n/a	n/a	8
106.124	n/a	53062	dot_no2_OFF	22	n/a	n/a	8
107.444	n/a	53722	dot_no7_ON	17	n/a	n/a	8
108.026	n/a	54013	dot_no7_OFF	27	n/a	n/a	8
109.346	n/a	54673	dot_no3_ON	13	n/a	n/a	8
109.924	n/a	54962	dot_no3_OFF	23	n/a	n/a	8
111.244	n/a	55622	dot_no8_ON	18	n/a	n/a	8
111.824	n/a	55912	dot_no8_OFF	28	n/a	n/a	8
113.144	n/a	56572	dot_no5_ON	15	n/a	n/a	8
113.724	n/a	56862	dot_no5_OFF	25	n/a	n/a	8
115.044	n/a	57522	dot_no2_ON	12	n/a	n/a	8
115.626	n/a	57813	dot_no2_OFF	22	n/a	n/a	8
116.946	n/a	58473	dot_no7_ON	17	n/a	n/a	8
117.526	n/a	58763	dot_no7_OFF	27	7-2-5-8-3-4-1-2-6-2	1-6-4-2-7-3-8-5-2-7	8
149.858	n/a	74929	learningBlock_3	33	n/a	n/a	8
149.866	n/a	74933	dot_no1_ON	11	n/a	n/a	8
150.446	n/a	75223	dot_no1_OFF	21	n/a	n/a	8
151.766	n/a	75883	dot_no6_ON	16	n/a	n/a	8
152.346	n/a	76173	dot_no6_OFF	26	n/a	n/a	8
153.666	n/a	76833	dot_no4_ON	14	n/a	n/a	8
154.246	n/a	77123	dot_no4_OFF	24	n/a	n/a	8
155.566	n/a	77783	dot_no2_ON	12	n/a	n/a	8
156.146	n/a	78073	dot_no2_OFF	22	n/a	n/a	8
157.466	n/a	78733	dot_no7_ON	17	n/a	n/a	8
158.046	n/a	79023	dot_no7_OFF	27	n/a	n/a	8
159.366	n/a	79683	dot_no3_ON	13	n/a	n/a	8
159.946	n/a	79973	dot_no3_OFF	23	n/a	n/a	8
161.266	n/a	80633	dot_no8_ON	18	n/a	n/a	8
161.846	n/a	80923	dot_no8_OFF	28	n/a	n/a	8
163.166	n/a	81583	dot_no5_ON	15	n/a	n/a	8
163.746	n/a	81873	dot_no5_OFF	25	n/a	n/a	8
165.066	n/a	82533	dot_no2_ON	12	n/a	n/a	8
165.646	n/a	82823	dot_no2_OFF	22	n/a	n/a	8
166.966	n/a	83483	dot_no7_ON	17	n/a	n/a	8
167.546	n/a	83773	dot_no7_OFF	27	5-2-2-8-7-6-1-3-4-5	1-6-4-2-7-3-8-5-2-7	8
191.778	n/a	95889	learningBlock_4	34	n/a	n/a	8
191.788	n/a	95894	dot_no1_ON	11	n/a	n/a	8
192.366	n/a	96183	dot_no1_OFF	21	n/a	n/a	8
193.688	n/a	96844	dot_no6_ON	16	n/a	n/a	8
194.266	n/a	97133	dot_no6_OFF	26	n/a	n/a	8
195.586	n/a	97793	dot_no4_ON	14	n/a	n/a	8
196.166	n/a	98083	dot_no4_OFF	24	n/a	n/a	8
197.488	n/a	98744	dot_no2_ON	12	n/a	n/a	8
198.066	n/a	99033	dot_no2_OFF	22	n/a	n/a	8
199.388	n/a	99694	dot_no7_ON	17	n/a	n/a	8
199.978	n/a	99989	dot_no7_OFF	27	n/a	n/a	8
201.298	n/a	100649	dot_no3_ON	13	n/a	n/a	8
201.888	n/a	100944	dot_no3_OFF	23	n/a	n/a	8
203.206	n/a	101603	dot_no8_ON	18	n/a	n/a	8
203.796	n/a	101898	dot_no8_OFF	28	n/a	n/a	8
205.116	n/a	102558	dot_no5_ON	15	n/a	n/a	8
205.696	n/a	102848	dot_no5_OFF	25	n/a	n/a	8
207.016	n/a	103508	dot_no2_ON	12	n/a	n/a	8
207.598	n/a	103799	dot_no2_OFF	22	n/a	n/a	8
208.918	n/a	104459	dot_no7_ON	17	n/a	n/a	8
209.508	n/a	104754	dot_no7_OFF	27	3-7-2-1-4-8-5-4-6-6	1-6-4-2-7-3-8-5-2-7	8
242.33	n/a	121165	learningBlock_5	35	n/a	n/a	8
242.348	n/a	121174	dot_no1_ON	11	n/a	n/a	8
242.928	n/a	121464	dot_no1_OFF	21	n/a	n/a	8
244.248	n/a	122124	dot_no6_ON	16	n/a	n/a	8
244.828	n/a	122414	dot_no6_OFF	26	n/a	n/a	8
246.148	n/a	123074	dot_no4_ON	14	n/a	n/a	8
246.728	n/a	123364	dot_no4_OFF	24	n/a	n/a	8
248.048	n/a	124024	dot_no2_ON	12	n/a	n/a	8
248.638	n/a	124319	dot_no2_OFF	22	n/a	n/a	8
249.958	n/a	124979	dot_no7_ON	17	n/a	n/a	8
250.538	n/a	125269	dot_no7_OFF	27	n/a	n/a	8
251.858	n/a	125929	dot_no3_ON	13	n/a	n/a	8
252.438	n/a	126219	dot_no3_OFF	23	n/a	n/a	8
253.758	n/a	126879	dot_no8_ON	18	n/a	n/a	8
254.338	n/a	127169	dot_no8_OFF	28	n/a	n/a	8
255.658	n/a	127829	dot_no5_ON	15	n/a	n/a	8
256.248	n/a	128124	dot_no5_OFF	25	n/a	n/a	8
257.568	n/a	128784	dot_no2_ON	12	n/a	n/a	8
258.16	n/a	129080	dot_no2_OFF	22	n/a	n/a	8
259.478	n/a	129739	dot_no7_ON	17	n/a	n/a	8
260.058	n/a	130029	dot_no7_OFF	27	7-8-3-5-1-2-6-6-4-8	1-6-4-2-7-3-8-5-2-7	8
301.352	n/a	150676	seqLearning_stop	50	n/a	n/a	8
303.681	n/a	151840.5	boundary	boundary	n/a	n/a	8
