onset	duration	sample	value	event_code	user_answer	correct_answer	target_count
0	n/a	0	break cnt	break cnt	n/a	n/a	8
26.92	n/a	13460	seqLearning_start	91	n/a	n/a	8
33.194	n/a	16597	learningBlock_1	31	n/a	n/a	8
33.218	n/a	16609	dot_no1_ON	11	n/a	n/a	8
33.806	n/a	16903	dot_no1_OFF	21	n/a	n/a	8
35.126	n/a	17563	dot_no6_ON	16	n/a	n/a	8
35.706	n/a	17853	dot_no6_OFF	26	n/a	n/a	8
37.026	n/a	18513	dot_no4_ON	14	n/a	n/a	8
37.606	n/a	18803	dot_no4_OFF	24	n/a	n/a	8
38.926	n/a	19463	dot_no2_ON	12	n/a	n/a	8
39.506	n/a	19753	dot_no2_OFF	22	n/a	n/a	8
40.826	n/a	20413	dot_no7_ON	17	n/a	n/a	8
41.406	n/a	20703	dot_no7_OFF	27	n/a	n/a	8
42.726	n/a	21363	dot_no3_ON	13	n/a	n/a	8
43.316	n/a	21658	dot_no3_OFF	23	n/a	n/a	8
44.636	n/a	22318	dot_no8_ON	18	n/a	n/a	8
45.216	n/a	22608	dot_no8_OFF	28	n/a	n/a	8
46.536	n/a	23268	dot_no5_ON	15	n/a	n/a	8
47.116	n/a	23558	dot_no5_OFF	25	n/a	n/a	8
48.436	n/a	24218	dot_no2_ON	12	n/a	n/a	8
49.026	n/a	24513	dot_no2_OFF	22	n/a	n/a	8
50.346	n/a	25173	dot_no7_ON	17	n/a	n/a	8
50.926	n/a	25463	dot_no7_OFF	27	1-6-2-4-7-3-2-5-8-1	1-6-4-2-7-3-8-5-2-7	8
99.238	n/a	49619	learningBlock_2	32	n/a	n/a	8
99.244	n/a	49622	dot_no1_ON	11	n/a	n/a	8
99.824	n/a	49912	dot_no1_OFF	21	n/a	n/a	8
101.144	n/a	50572	dot_no6_ON	16	n/a	n/a	8
101.724	n/a	50862	dot_no6_OFF	26	n/a	n/a	8
103.044	n/a	51522	dot_no4_ON	14	n/a	n/a	8
103.624	n/a	51812	dot_no4_OFF	24	n/a	n/a	8
104.944	n/a	52472	dot_no2_ON	12	n/a	n/a	8
105.524	n/a	52762	dot_no2_OFF	22	n/a	n/a	8
106.844	n/a	53422	dot_no7_ON	17	n/a	n/a	8
107.424	n/a	53712	dot_no7_OFF	27	n/a	n/a	8
108.744	n/a	54372	dot_no3_ON	13	n/a	n/a	8
109.324	n/a	54662	dot_no3_OFF	23	n/a	n/a	8
110.644	n/a	55322	dot_no8_ON	18	n/a	n/a	8
111.224	n/a	55612	dot_no8_OFF	28	n/a	n/a	8
112.544	n/a	56272	dot_no5_ON	15	n/a	n/a	8
113.124	n/a	56562	dot_no5_OFF	25	n/a	n/a	8
114.444	n/a	57222	dot_no2_ON	12	n/a	n/a	8
115.024	n/a	57512	dot_no2_OFF	22	n/a	n/a	8
116.344	n/a	58172	dot_no7_ON	17	n/a	n/a	8
116.924	n/a	58462	dot_no7_OFF	27	1-6-4-2-7-3-8-5-3-8	1-6-4-2-7-3-8-5-2-7	8
153.336	n/a	76668	learningBlock_3	33	n/a	n/a	8
153.344	n/a	76672	dot_no1_ON	11	n/a	n/a	8
153.924	n/a	76962	dot_no1_OFF	21	n/a	n/a	8
155.244	n/a	77622	dot_no6_ON	16	n/a	n/a	8
155.824	n/a	77912	dot_no6_OFF	26	n/a	n/a	8
157.144	n/a	78572	dot_no4_ON	14	n/a	n/a	8
157.724	n/a	78862	dot_no4_OFF	24	n/a	n/a	8
159.044	n/a	79522	dot_no2_ON	12	n/a	n/a	8
159.624	n/a	79812	dot_no2_OFF	22	n/a	n/a	8
160.944	n/a	80472	dot_no7_ON	17	n/a	n/a	8
161.524	n/a	80762	dot_no7_OFF	27	n/a	n/a	8
162.854	n/a	81427	dot_no3_ON	13	n/a	n/a	8
163.434	n/a	81717	dot_no3_OFF	23	n/a	n/a	8
164.754	n/a	82377	dot_no8_ON	18	n/a	n/a	8
165.344	n/a	82672	dot_no8_OFF	28	n/a	n/a	8
166.664	n/a	83332	dot_no5_ON	15	n/a	n/a	8
167.244	n/a	83622	dot_no5_OFF	25	n/a	n/a	8
168.564	n/a	84282	dot_no2_ON	12	n/a	n/a	8
169.144	n/a	84572	dot_no2_OFF	22	n/a	n/a	8
170.462	n/a	85231	dot_no7_ON	17	n/a	n/a	8
171.044	n/a	85522	dot_no7_OFF	27	1-6-2-4-3-7-8-5-3-1	1-6-4-2-7-3-8-5-2-7	8
192.636	n/a	96318	learningBlock_4	34	n/a	n/a	8
192.642	n/a	96321	dot_no1_ON	11	n/a	n/a	8
193.232	n/a	96616	dot_no1_OFF	21	n/a	n/a	8
194.552	n/a	97276	dot_no6_ON	16	n/a	n/a	8
195.132	n/a	97566	dot_no6_OFF	26	n/a	n/a	8
196.452	n/a	98226	dot_no4_ON	14	n/a	n/a	8
197.032	n/a	98516	dot_no4_OFF	24	n/a	n/a	8
198.352	n/a	99176	dot_no2_ON	12	n/a	n/a	8
198.942	n/a	99471	dot_no2_OFF	22	n/a	n/a	8
200.262	n/a	100131	dot_no7_ON	17	n/a	n/a	8
200.844	n/a	100422	dot_no7_OFF	27	n/a	n/a	8
202.162	n/a	101081	dot_no3_ON	13	n/a	n/a	8
202.742	n/a	101371	dot_no3_OFF	23	n/a	n/a	8
204.062	n/a	102031	dot_no8_ON	18	n/a	n/a	8
204.642	n/a	102321	dot_no8_OFF	28	n/a	n/a	8
205.962	n/a	102981	dot_no5_ON	15	n/a	n/a	8
206.552	n/a	103276	dot_no5_OFF	25	n/a	n/a	8
207.872	n/a	103936	dot_no2_ON	12	n/a	n/a	8
208.452	n/a	104226	dot_no2_OFF	22	n/a	n/a	8
209.772	n/a	104886	dot_no7_ON	17	n/a	n/a	8
210.352	n/a	105176	dot_no7_OFF	27	1-6-4-2-7-3-5-8-3-5	1-6-4-2-7-3-8-5-2-7	8
241.714	n/a	120857	learningBlock_5	35	n/a	n/a	8
241.722	n/a	120861	dot_no1_ON	11	n/a	n/a	8
242.302	n/a	121151	dot_no1_OFF	21	n/a	n/a	8
243.622	n/a	121811	dot_no6_ON	16	n/a	n/a	8
244.202	n/a	122101	dot_no6_OFF	26	n/a	n/a	8
245.522	n/a	122761	dot_no4_ON	14	n/a	n/a	8
246.102	n/a	123051	dot_no4_OFF	24	n/a	n/a	8
247.422	n/a	123711	dot_no2_ON	12	n/a	n/a	8
248.002	n/a	124001	dot_no2_OFF	22	n/a	n/a	8
249.322	n/a	124661	dot_no7_ON	17	n/a	n/a	8
249.902	n/a	124951	dot_no7_OFF	27	n/a	n/a	8
251.222	n/a	125611	dot_no3_ON	13	n/a	n/a	8
251.802	n/a	125901	dot_no3_OFF	23	n/a	n/a	8
253.122	n/a	126561	dot_no8_ON	18	n/a	n/a	8
253.702	n/a	126851	dot_no8_OFF	28	n/a	n/a	8
255.022	n/a	127511	dot_no5_ON	15	n/a	n/a	8
255.602	n/a	127801	dot_no5_OFF	25	n/a	n/a	8
256.922	n/a	128461	dot_no2_ON	12	n/a	n/a	8
257.502	n/a	128751	dot_no2_OFF	22	n/a	n/a	8
258.822	n/a	129411	dot_no7_ON	17	n/a	n/a	8
259.412	n/a	129706	dot_no7_OFF	27	1-6-4-2-7-3-5-8-3-1	1-6-4-2-7-3-8-5-2-7	8
280.794	n/a	140397	seqLearning_stop	50	n/a	n/a	8
284.027	n/a	142013.5	boundary	boundary	n/a	n/a	8
