onset	duration	sample	value	event_code	user_answer	correct_answer	target_count
0	n/a	0	break cnt	break cnt	n/a	n/a	8
29.35	n/a	14675	seqLearning_start	91	n/a	n/a	8
35.624	n/a	17812	learningBlock_1	31	n/a	n/a	8
35.656	n/a	17828	dot_no1_ON	11	n/a	n/a	8
36.246	n/a	18123	dot_no1_OFF	21	n/a	n/a	8
37.566	n/a	18783	dot_no6_ON	16	n/a	n/a	8
38.146	n/a	19073	dot_no6_OFF	26	n/a	n/a	8
39.466	n/a	19733	dot_no4_ON	14	n/a	n/a	8
40.046	n/a	20023	dot_no4_OFF	24	n/a	n/a	8
41.366	n/a	20683	dot_no2_ON	12	n/a	n/a	8
41.946	n/a	20973	dot_no2_OFF	22	n/a	n/a	8
43.266	n/a	21633	dot_no7_ON	17	n/a	n/a	8
43.846	n/a	21923	dot_no7_OFF	27	n/a	n/a	8
45.166	n/a	22583	dot_no3_ON	13	n/a	n/a	8
45.746	n/a	22873	dot_no3_OFF	23	n/a	n/a	8
47.066	n/a	23533	dot_no8_ON	18	n/a	n/a	8
47.646	n/a	23823	dot_no8_OFF	28	n/a	n/a	8
48.966	n/a	24483	dot_no5_ON	15	n/a	n/a	8
49.546	n/a	24773	dot_no5_OFF	25	n/a	n/a	8
50.866	n/a	25433	dot_no2_ON	12	n/a	n/a	8
51.446	n/a	25723	dot_no2_OFF	22	n/a	n/a	8
52.766	n/a	26383	dot_no7_ON	17	n/a	n/a	8
53.346	n/a	26673	dot_no7_OFF	27	1-6-4-2-7-5-8-2-7-3	1-6-4-2-7-3-8-5-2-7	8
89.088	n/a	44544	learningBlock_2	32	n/a	n/a	8
89.096	n/a	44548	dot_no1_ON	11	n/a	n/a	8
89.676	n/a	44838	dot_no1_OFF	21	n/a	n/a	8
90.996	n/a	45498	dot_no6_ON	16	n/a	n/a	8
91.586	n/a	45793	dot_no6_OFF	26	n/a	n/a	8
92.906	n/a	46453	dot_no4_ON	14	n/a	n/a	8
93.496	n/a	46748	dot_no4_OFF	24	n/a	n/a	8
94.816	n/a	47408	dot_no2_ON	12	n/a	n/a	8
95.396	n/a	47698	dot_no2_OFF	22	n/a	n/a	8
96.716	n/a	48358	dot_no7_ON	17	n/a	n/a	8
97.296	n/a	48648	dot_no7_OFF	27	n/a	n/a	8
98.616	n/a	49308	dot_no3_ON	13	n/a	n/a	8
99.206	n/a	49603	dot_no3_OFF	23	n/a	n/a	8
100.526	n/a	50263	dot_no8_ON	18	n/a	n/a	8
101.106	n/a	50553	dot_no8_OFF	28	n/a	n/a	8
102.426	n/a	51213	dot_no5_ON	15	n/a	n/a	8
103.006	n/a	51503	dot_no5_OFF	25	n/a	n/a	8
104.326	n/a	52163	dot_no2_ON	12	n/a	n/a	8
104.906	n/a	52453	dot_no2_OFF	22	n/a	n/a	8
106.226	n/a	53113	dot_no7_ON	17	n/a	n/a	8
106.808	n/a	53404	dot_no7_OFF	27	1-6-4-2-3-7-5-8-2-7	1-6-4-2-7-3-8-5-2-7	8
139.3	n/a	69650	learningBlock_3	33	n/a	n/a	8
139.308	n/a	69654	dot_no1_ON	11	n/a	n/a	8
139.888	n/a	69944	dot_no1_OFF	21	n/a	n/a	8
141.208	n/a	70604	dot_no6_ON	16	n/a	n/a	8
141.788	n/a	70894	dot_no6_OFF	26	n/a	n/a	8
143.108	n/a	71554	dot_no4_ON	14	n/a	n/a	8
143.688	n/a	71844	dot_no4_OFF	24	n/a	n/a	8
145.008	n/a	72504	dot_no2_ON	12	n/a	n/a	8
145.588	n/a	72794	dot_no2_OFF	22	n/a	n/a	8
146.908	n/a	73454	dot_no7_ON	17	n/a	n/a	8
147.488	n/a	73744	dot_no7_OFF	27	n/a	n/a	8
148.808	n/a	74404	dot_no3_ON	13	n/a	n/a	8
149.388	n/a	74694	dot_no3_OFF	23	n/a	n/a	8
150.708	n/a	75354	dot_no8_ON	18	n/a	n/a	8
151.288	n/a	75644	dot_no8_OFF	28	n/a	n/a	8
152.608	n/a	76304	dot_no5_ON	15	n/a	n/a	8
153.188	n/a	76594	dot_no5_OFF	25	n/a	n/a	8
154.508	n/a	77254	dot_no2_ON	12	n/a	n/a	8
155.088	n/a	77544	dot_no2_OFF	22	n/a	n/a	8
156.408	n/a	78204	dot_no7_ON	17	n/a	n/a	8
156.988	n/a	78494	dot_no7_OFF	27	1-6-4-2-7-3-8-5-2-7	1-6-4-2-7-3-8-5-2-7	8
180.112	n/a	90056	learningBlock_4	34	n/a	n/a	8
180.118	n/a	90059	dot_no1_ON	11	n/a	n/a	8
180.708	n/a	90354	dot_no1_OFF	21	n/a	n/a	8
182.028	n/a	91014	dot_no6_ON	16	n/a	n/a	8
182.61	n/a	91305	dot_no6_OFF	26	n/a	n/a	8
183.928	n/a	91964	dot_no4_ON	14	n/a	n/a	8
184.508	n/a	92254	dot_no4_OFF	24	n/a	n/a	8
185.828	n/a	92914	dot_no2_ON	12	n/a	n/a	8
186.408	n/a	93204	dot_no2_OFF	22	n/a	n/a	8
187.728	n/a	93864	dot_no7_ON	17	n/a	n/a	8
188.31	n/a	94155	dot_no7_OFF	27	n/a	n/a	8
189.628	n/a	94814	dot_no3_ON	13	n/a	n/a	8
190.208	n/a	95104	dot_no3_OFF	23	n/a	n/a	8
191.528	n/a	95764	dot_no8_ON	18	n/a	n/a	8
192.108	n/a	96054	dot_no8_OFF	28	n/a	n/a	8
193.428	n/a	96714	dot_no5_ON	15	n/a	n/a	8
194.018	n/a	97009	dot_no5_OFF	25	n/a	n/a	8
195.338	n/a	97669	dot_no2_ON	12	n/a	n/a	8
195.918	n/a	97959	dot_no2_OFF	22	n/a	n/a	8
197.24	n/a	98620	dot_no7_ON	17	n/a	n/a	8
197.82	n/a	98910	dot_no7_OFF	27	1-6-4-2-3-7-5-8-1-2	1-6-4-2-7-3-8-5-2-7	8
231.082	n/a	115541	learningBlock_5	35	n/a	n/a	8
231.09	n/a	115545	dot_no1_ON	11	n/a	n/a	8
231.68	n/a	115840	dot_no1_OFF	21	n/a	n/a	8
233	n/a	116500	dot_no6_ON	16	n/a	n/a	8
233.58	n/a	116790	dot_no6_OFF	26	n/a	n/a	8
234.9	n/a	117450	dot_no4_ON	14	n/a	n/a	8
235.48	n/a	117740	dot_no4_OFF	24	n/a	n/a	8
236.8	n/a	118400	dot_no2_ON	12	n/a	n/a	8
237.38	n/a	118690	dot_no2_OFF	22	n/a	n/a	8
238.7	n/a	119350	dot_no7_ON	17	n/a	n/a	8
239.28	n/a	119640	dot_no7_OFF	27	n/a	n/a	8
240.6	n/a	120300	dot_no3_ON	13	n/a	n/a	8
241.18	n/a	120590	dot_no3_OFF	23	n/a	n/a	8
242.5	n/a	121250	dot_no8_ON	18	n/a	n/a	8
243.08	n/a	121540	dot_no8_OFF	28	n/a	n/a	8
244.4	n/a	122200	dot_no5_ON	15	n/a	n/a	8
244.98	n/a	122490	dot_no5_OFF	25	n/a	n/a	8
246.3	n/a	123150	dot_no2_ON	12	n/a	n/a	8
246.88	n/a	123440	dot_no2_OFF	22	n/a	n/a	8
248.2	n/a	124100	dot_no7_ON	17	n/a	n/a	8
248.79	n/a	124395	dot_no7_OFF	27	1-6-4-2-7-3-8-5-2-7	1-6-4-2-7-3-8-5-2-7	8
276.374	n/a	138187	seqLearning_stop	50	n/a	n/a	8
279.677	n/a	139838.5	boundary	boundary	n/a	n/a	8
