onset	duration	sample	value	event_code	user_answer	correct_answer	target_count
0	n/a	0	break cnt	break cnt	n/a	n/a	8
126.954	n/a	63477	seqLearning_start	91	n/a	n/a	8
136.288	n/a	68144	learningBlock_1	31	n/a	n/a	8
136.306	n/a	68153	dot_no1_ON	11	n/a	n/a	8
136.894	n/a	68447	dot_no1_OFF	21	n/a	n/a	8
138.214	n/a	69107	dot_no6_ON	16	n/a	n/a	8
138.804	n/a	69402	dot_no6_OFF	26	n/a	n/a	8
140.124	n/a	70062	dot_no4_ON	14	n/a	n/a	8
140.714	n/a	70357	dot_no4_OFF	24	n/a	n/a	8
142.034	n/a	71017	dot_no2_ON	12	n/a	n/a	8
142.624	n/a	71312	dot_no2_OFF	22	n/a	n/a	8
143.946	n/a	71973	dot_no7_ON	17	n/a	n/a	8
144.534	n/a	72267	dot_no7_OFF	27	n/a	n/a	8
145.856	n/a	72928	dot_no3_ON	13	n/a	n/a	8
146.444	n/a	73222	dot_no3_OFF	23	n/a	n/a	8
147.764	n/a	73882	dot_no8_ON	18	n/a	n/a	8
148.354	n/a	74177	dot_no8_OFF	28	n/a	n/a	8
149.676	n/a	74838	dot_no5_ON	15	n/a	n/a	8
150.264	n/a	75132	dot_no5_OFF	25	n/a	n/a	8
151.584	n/a	75792	dot_no2_ON	12	n/a	n/a	8
152.174	n/a	76087	dot_no2_OFF	22	n/a	n/a	8
153.496	n/a	76748	dot_no7_ON	17	n/a	n/a	8
154.084	n/a	77042	dot_no7_OFF	27	1-6-3-8-4-7-2-5-4-6	1-6-4-2-7-3-8-5-2-7	8
201.92	n/a	100960	learningBlock_2	32	n/a	n/a	8
201.936	n/a	100968	dot_no1_ON	11	n/a	n/a	8
202.524	n/a	101262	dot_no1_OFF	21	n/a	n/a	8
203.844	n/a	101922	dot_no6_ON	16	n/a	n/a	8
204.436	n/a	102218	dot_no6_OFF	26	n/a	n/a	8
205.756	n/a	102878	dot_no4_ON	14	n/a	n/a	8
206.344	n/a	103172	dot_no4_OFF	24	n/a	n/a	8
207.666	n/a	103833	dot_no2_ON	12	n/a	n/a	8
208.254	n/a	104127	dot_no2_OFF	22	n/a	n/a	8
209.576	n/a	104788	dot_no7_ON	17	n/a	n/a	8
210.164	n/a	105082	dot_no7_OFF	27	n/a	n/a	8
211.486	n/a	105743	dot_no3_ON	13	n/a	n/a	8
212.074	n/a	106037	dot_no3_OFF	23	n/a	n/a	8
213.396	n/a	106698	dot_no8_ON	18	n/a	n/a	8
213.984	n/a	106992	dot_no8_OFF	28	n/a	n/a	8
215.306	n/a	107653	dot_no5_ON	15	n/a	n/a	8
215.894	n/a	107947	dot_no5_OFF	25	n/a	n/a	8
217.216	n/a	108608	dot_no2_ON	12	n/a	n/a	8
217.804	n/a	108902	dot_no2_OFF	22	n/a	n/a	8
219.126	n/a	109563	dot_no7_ON	17	n/a	n/a	8
219.714	n/a	109857	dot_no7_OFF	27	1-6-3-7-4-8-4-2-6-5	1-6-4-2-7-3-8-5-2-7	8
255.314	n/a	127657	learningBlock_3	33	n/a	n/a	8
255.326	n/a	127663	dot_no1_ON	11	n/a	n/a	8
255.916	n/a	127958	dot_no1_OFF	21	n/a	n/a	8
257.236	n/a	128618	dot_no6_ON	16	n/a	n/a	8
257.824	n/a	128912	dot_no6_OFF	26	n/a	n/a	8
259.146	n/a	129573	dot_no4_ON	14	n/a	n/a	8
259.734	n/a	129867	dot_no4_OFF	24	n/a	n/a	8
261.056	n/a	130528	dot_no2_ON	12	n/a	n/a	8
261.644	n/a	130822	dot_no2_OFF	22	n/a	n/a	8
262.966	n/a	131483	dot_no7_ON	17	n/a	n/a	8
263.554	n/a	131777	dot_no7_OFF	27	n/a	n/a	8
264.876	n/a	132438	dot_no3_ON	13	n/a	n/a	8
265.464	n/a	132732	dot_no3_OFF	23	n/a	n/a	8
266.786	n/a	133393	dot_no8_ON	18	n/a	n/a	8
267.374	n/a	133687	dot_no8_OFF	28	n/a	n/a	8
268.696	n/a	134348	dot_no5_ON	15	n/a	n/a	8
269.284	n/a	134642	dot_no5_OFF	25	n/a	n/a	8
270.606	n/a	135303	dot_no2_ON	12	n/a	n/a	8
271.194	n/a	135597	dot_no2_OFF	22	n/a	n/a	8
272.516	n/a	136258	dot_no7_ON	17	n/a	n/a	8
273.104	n/a	136552	dot_no7_OFF	27	1-6-4-7-3-8-2-7-4-6	1-6-4-2-7-3-8-5-2-7	8
293.602	n/a	146801	learningBlock_4	34	n/a	n/a	8
293.616	n/a	146808	dot_no1_ON	11	n/a	n/a	8
294.204	n/a	147102	dot_no1_OFF	21	n/a	n/a	8
295.526	n/a	147763	dot_no6_ON	16	n/a	n/a	8
296.114	n/a	148057	dot_no6_OFF	26	n/a	n/a	8
297.436	n/a	148718	dot_no4_ON	14	n/a	n/a	8
298.024	n/a	149012	dot_no4_OFF	24	n/a	n/a	8
299.346	n/a	149673	dot_no2_ON	12	n/a	n/a	8
299.934	n/a	149967	dot_no2_OFF	22	n/a	n/a	8
301.256	n/a	150628	dot_no7_ON	17	n/a	n/a	8
301.844	n/a	150922	dot_no7_OFF	27	n/a	n/a	8
303.166	n/a	151583	dot_no3_ON	13	n/a	n/a	8
303.756	n/a	151878	dot_no3_OFF	23	n/a	n/a	8
305.076	n/a	152538	dot_no8_ON	18	n/a	n/a	8
305.664	n/a	152832	dot_no8_OFF	28	n/a	n/a	8
306.986	n/a	153493	dot_no5_ON	15	n/a	n/a	8
307.576	n/a	153788	dot_no5_OFF	25	n/a	n/a	8
308.896	n/a	154448	dot_no2_ON	12	n/a	n/a	8
309.484	n/a	154742	dot_no2_OFF	22	n/a	n/a	8
310.806	n/a	155403	dot_no7_ON	17	n/a	n/a	8
311.394	n/a	155697	dot_no7_OFF	27	1-6-4-7-3-8-2-5-7-4	1-6-4-2-7-3-8-5-2-7	8
340.31	n/a	170155	learningBlock_5	35	n/a	n/a	8
340.326	n/a	170163	dot_no1_ON	11	n/a	n/a	8
340.914	n/a	170457	dot_no1_OFF	21	n/a	n/a	8
342.236	n/a	171118	dot_no6_ON	16	n/a	n/a	8
342.826	n/a	171413	dot_no6_OFF	26	n/a	n/a	8
344.146	n/a	172073	dot_no4_ON	14	n/a	n/a	8
344.734	n/a	172367	dot_no4_OFF	24	n/a	n/a	8
346.056	n/a	173028	dot_no2_ON	12	n/a	n/a	8
346.646	n/a	173323	dot_no2_OFF	22	n/a	n/a	8
347.966	n/a	173983	dot_no7_ON	17	n/a	n/a	8
348.556	n/a	174278	dot_no7_OFF	27	n/a	n/a	8
349.876	n/a	174938	dot_no3_ON	13	n/a	n/a	8
350.466	n/a	175233	dot_no3_OFF	23	n/a	n/a	8
351.786	n/a	175893	dot_no8_ON	18	n/a	n/a	8
352.374	n/a	176187	dot_no8_OFF	28	n/a	n/a	8
353.696	n/a	176848	dot_no5_ON	15	n/a	n/a	8
354.286	n/a	177143	dot_no5_OFF	25	n/a	n/a	8
355.606	n/a	177803	dot_no2_ON	12	n/a	n/a	8
356.196	n/a	178098	dot_no2_OFF	22	n/a	n/a	8
357.516	n/a	178758	dot_no7_ON	17	n/a	n/a	8
358.106	n/a	179053	dot_no7_OFF	27	1-6-4-2-7-3-8-5-2-7	1-6-4-2-7-3-8-5-2-7	8
379.57	n/a	189785	seqLearning_stop	50	n/a	n/a	8
380.507	n/a	190253.5	boundary	boundary	n/a	n/a	8
