onset	duration	sample	value	event_code	user_answer	correct_answer	target_count
0	n/a	0	break cnt	break cnt	n/a	n/a	8
153.746	n/a	76873	seqLearning_start	91	n/a	n/a	8
163.068	n/a	81534	learningBlock_1	31	n/a	n/a	8
163.096	n/a	81548	dot_no1_ON	11	n/a	n/a	8
163.684	n/a	81842	dot_no1_OFF	21	n/a	n/a	8
165.004	n/a	82502	dot_no6_ON	16	n/a	n/a	8
165.594	n/a	82797	dot_no6_OFF	26	n/a	n/a	8
166.916	n/a	83458	dot_no4_ON	14	n/a	n/a	8
167.504	n/a	83752	dot_no4_OFF	24	n/a	n/a	8
168.824	n/a	84412	dot_no2_ON	12	n/a	n/a	8
169.414	n/a	84707	dot_no2_OFF	22	n/a	n/a	8
170.736	n/a	85368	dot_no7_ON	17	n/a	n/a	8
171.324	n/a	85662	dot_no7_OFF	27	n/a	n/a	8
172.644	n/a	86322	dot_no3_ON	13	n/a	n/a	8
173.234	n/a	86617	dot_no3_OFF	23	n/a	n/a	8
174.556	n/a	87278	dot_no8_ON	18	n/a	n/a	8
175.144	n/a	87572	dot_no8_OFF	28	n/a	n/a	8
176.466	n/a	88233	dot_no5_ON	15	n/a	n/a	8
177.054	n/a	88527	dot_no5_OFF	25	n/a	n/a	8
178.376	n/a	89188	dot_no2_ON	12	n/a	n/a	8
178.964	n/a	89482	dot_no2_OFF	22	n/a	n/a	8
180.286	n/a	90143	dot_no7_ON	17	n/a	n/a	8
180.874	n/a	90437	dot_no7_OFF	27	8-6-2-1-7-3-5-4-3-6	1-6-4-2-7-3-8-5-2-7	8
236.284	n/a	118142	learningBlock_2	32	n/a	n/a	8
236.296	n/a	118148	dot_no1_ON	11	n/a	n/a	8
236.884	n/a	118442	dot_no1_OFF	21	n/a	n/a	8
238.204	n/a	119102	dot_no6_ON	16	n/a	n/a	8
238.794	n/a	119397	dot_no6_OFF	26	n/a	n/a	8
240.116	n/a	120058	dot_no4_ON	14	n/a	n/a	8
240.704	n/a	120352	dot_no4_OFF	24	n/a	n/a	8
242.026	n/a	121013	dot_no2_ON	12	n/a	n/a	8
242.614	n/a	121307	dot_no2_OFF	22	n/a	n/a	8
243.936	n/a	121968	dot_no7_ON	17	n/a	n/a	8
244.524	n/a	122262	dot_no7_OFF	27	n/a	n/a	8
245.846	n/a	122923	dot_no3_ON	13	n/a	n/a	8
246.434	n/a	123217	dot_no3_OFF	23	n/a	n/a	8
247.756	n/a	123878	dot_no8_ON	18	n/a	n/a	8
248.344	n/a	124172	dot_no8_OFF	28	n/a	n/a	8
249.666	n/a	124833	dot_no5_ON	15	n/a	n/a	8
250.254	n/a	125127	dot_no5_OFF	25	n/a	n/a	8
251.576	n/a	125788	dot_no2_ON	12	n/a	n/a	8
252.164	n/a	126082	dot_no2_OFF	22	n/a	n/a	8
253.486	n/a	126743	dot_no7_ON	17	n/a	n/a	8
254.074	n/a	127037	dot_no7_OFF	27	8-6-4-2-1-5-1-1-1-7	1-6-4-2-7-3-8-5-2-7	8
280.384	n/a	140192	learningBlock_3	33	n/a	n/a	8
280.396	n/a	140198	dot_no1_ON	11	n/a	n/a	8
280.986	n/a	140493	dot_no1_OFF	21	n/a	n/a	8
282.306	n/a	141153	dot_no6_ON	16	n/a	n/a	8
282.894	n/a	141447	dot_no6_OFF	26	n/a	n/a	8
284.216	n/a	142108	dot_no4_ON	14	n/a	n/a	8
284.806	n/a	142403	dot_no4_OFF	24	n/a	n/a	8
286.126	n/a	143063	dot_no2_ON	12	n/a	n/a	8
286.716	n/a	143358	dot_no2_OFF	22	n/a	n/a	8
288.036	n/a	144018	dot_no7_ON	17	n/a	n/a	8
288.624	n/a	144312	dot_no7_OFF	27	n/a	n/a	8
289.946	n/a	144973	dot_no3_ON	13	n/a	n/a	8
290.536	n/a	145268	dot_no3_OFF	23	n/a	n/a	8
291.856	n/a	145928	dot_no8_ON	18	n/a	n/a	8
292.446	n/a	146223	dot_no8_OFF	28	n/a	n/a	8
293.766	n/a	146883	dot_no5_ON	15	n/a	n/a	8
294.356	n/a	147178	dot_no5_OFF	25	n/a	n/a	8
295.676	n/a	147838	dot_no2_ON	12	n/a	n/a	8
296.266	n/a	148133	dot_no2_OFF	22	n/a	n/a	8
297.586	n/a	148793	dot_no7_ON	17	n/a	n/a	8
298.174	n/a	149087	dot_no7_OFF	27	1-6-4-8-2-7-5-3-1-4	1-6-4-2-7-3-8-5-2-7	8
328.37	n/a	164185	learningBlock_4	34	n/a	n/a	8
328.386	n/a	164193	dot_no1_ON	11	n/a	n/a	8
328.976	n/a	164488	dot_no1_OFF	21	n/a	n/a	8
330.296	n/a	165148	dot_no6_ON	16	n/a	n/a	8
330.884	n/a	165442	dot_no6_OFF	26	n/a	n/a	8
332.206	n/a	166103	dot_no4_ON	14	n/a	n/a	8
332.796	n/a	166398	dot_no4_OFF	24	n/a	n/a	8
334.116	n/a	167058	dot_no2_ON	12	n/a	n/a	8
334.706	n/a	167353	dot_no2_OFF	22	n/a	n/a	8
336.026	n/a	168013	dot_no7_ON	17	n/a	n/a	8
336.616	n/a	168308	dot_no7_OFF	27	n/a	n/a	8
337.936	n/a	168968	dot_no3_ON	13	n/a	n/a	8
338.524	n/a	169262	dot_no3_OFF	23	n/a	n/a	8
339.846	n/a	169923	dot_no8_ON	18	n/a	n/a	8
340.436	n/a	170218	dot_no8_OFF	28	n/a	n/a	8
341.758	n/a	170879	dot_no5_ON	15	n/a	n/a	8
342.346	n/a	171173	dot_no5_OFF	25	n/a	n/a	8
343.666	n/a	171833	dot_no2_ON	12	n/a	n/a	8
344.254	n/a	172127	dot_no2_OFF	22	n/a	n/a	8
345.576	n/a	172788	dot_no7_ON	17	n/a	n/a	8
346.164	n/a	173082	dot_no7_OFF	27	1-6-5-8-2-6-4-7-3-8	1-6-4-2-7-3-8-5-2-7	8
369.73	n/a	184865	learningBlock_5	35	n/a	n/a	8
369.746	n/a	184873	dot_no1_ON	11	n/a	n/a	8
370.346	n/a	185173	dot_no1_OFF	21	n/a	n/a	8
371.67	n/a	185835	dot_no6_ON	16	n/a	n/a	8
372.256	n/a	186128	dot_no6_OFF	26	n/a	n/a	8
373.576	n/a	186788	dot_no4_ON	14	n/a	n/a	8
374.166	n/a	187083	dot_no4_OFF	24	n/a	n/a	8
375.486	n/a	187743	dot_no2_ON	12	n/a	n/a	8
376.076	n/a	188038	dot_no2_OFF	22	n/a	n/a	8
377.396	n/a	188698	dot_no7_ON	17	n/a	n/a	8
377.986	n/a	188993	dot_no7_OFF	27	n/a	n/a	8
379.306	n/a	189653	dot_no3_ON	13	n/a	n/a	8
379.896	n/a	189948	dot_no3_OFF	23	n/a	n/a	8
381.216	n/a	190608	dot_no8_ON	18	n/a	n/a	8
381.806	n/a	190903	dot_no8_OFF	28	n/a	n/a	8
383.126	n/a	191563	dot_no5_ON	15	n/a	n/a	8
383.716	n/a	191858	dot_no5_OFF	25	n/a	n/a	8
385.036	n/a	192518	dot_no2_ON	12	n/a	n/a	8
385.626	n/a	192813	dot_no2_OFF	22	n/a	n/a	8
386.946	n/a	193473	dot_no7_ON	17	n/a	n/a	8
387.536	n/a	193768	dot_no7_OFF	27	4-6-1-3-8-5-7-3-2-8	1-6-4-2-7-3-8-5-2-7	8
415.302	n/a	207651	seqLearning_stop	50	n/a	n/a	8
416.407	n/a	208203.5	boundary	boundary	n/a	n/a	8
