onset	duration	sample	value	event_code	user_answer	correct_answer	target_count
0	n/a	0	break cnt	break cnt	n/a	n/a	8
26.99	n/a	13495	seqLearning_start	91	n/a	n/a	8
33.274	n/a	16637	learningBlock_1	31	n/a	n/a	8
33.304	n/a	16652	dot_no1_ON	11	n/a	n/a	8
33.892	n/a	16946	dot_no1_OFF	21	n/a	n/a	8
35.212	n/a	17606	dot_no6_ON	16	n/a	n/a	8
35.792	n/a	17896	dot_no6_OFF	26	n/a	n/a	8
37.112	n/a	18556	dot_no4_ON	14	n/a	n/a	8
37.692	n/a	18846	dot_no4_OFF	24	n/a	n/a	8
39.012	n/a	19506	dot_no2_ON	12	n/a	n/a	8
39.592	n/a	19796	dot_no2_OFF	22	n/a	n/a	8
40.922	n/a	20461	dot_no7_ON	17	n/a	n/a	8
41.502	n/a	20751	dot_no7_OFF	27	n/a	n/a	8
42.822	n/a	21411	dot_no3_ON	13	n/a	n/a	8
43.402	n/a	21701	dot_no3_OFF	23	n/a	n/a	8
44.722	n/a	22361	dot_no8_ON	18	n/a	n/a	8
45.302	n/a	22651	dot_no8_OFF	28	n/a	n/a	8
46.622	n/a	23311	dot_no5_ON	15	n/a	n/a	8
47.212	n/a	23606	dot_no5_OFF	25	n/a	n/a	8
48.532	n/a	24266	dot_no2_ON	12	n/a	n/a	8
49.114	n/a	24557	dot_no2_OFF	22	n/a	n/a	8
50.432	n/a	25216	dot_no7_ON	17	n/a	n/a	8
51.012	n/a	25506	dot_no7_OFF	27	1-6-4-7-3-5-8-2-7-5	1-6-4-2-7-3-8-5-2-7	8
92.236	n/a	46118	learningBlock_2	32	n/a	n/a	8
92.244	n/a	46122	dot_no1_ON	11	n/a	n/a	8
92.824	n/a	46412	dot_no1_OFF	21	n/a	n/a	8
94.144	n/a	47072	dot_no6_ON	16	n/a	n/a	8
94.724	n/a	47362	dot_no6_OFF	26	n/a	n/a	8
96.044	n/a	48022	dot_no4_ON	14	n/a	n/a	8
96.624	n/a	48312	dot_no4_OFF	24	n/a	n/a	8
97.944	n/a	48972	dot_no2_ON	12	n/a	n/a	8
98.524	n/a	49262	dot_no2_OFF	22	n/a	n/a	8
99.844	n/a	49922	dot_no7_ON	17	n/a	n/a	8
100.424	n/a	50212	dot_no7_OFF	27	n/a	n/a	8
101.744	n/a	50872	dot_no3_ON	13	n/a	n/a	8
102.324	n/a	51162	dot_no3_OFF	23	n/a	n/a	8
103.644	n/a	51822	dot_no8_ON	18	n/a	n/a	8
104.224	n/a	52112	dot_no8_OFF	28	n/a	n/a	8
105.544	n/a	52772	dot_no5_ON	15	n/a	n/a	8
106.124	n/a	53062	dot_no5_OFF	25	n/a	n/a	8
107.444	n/a	53722	dot_no2_ON	12	n/a	n/a	8
108.024	n/a	54012	dot_no2_OFF	22	n/a	n/a	8
109.344	n/a	54672	dot_no7_ON	17	n/a	n/a	8
109.934	n/a	54967	dot_no7_OFF	27	1-6-4-2-7-3-8-5-2-7	1-6-4-2-7-3-8-5-2-7	8
133.156	n/a	66578	learningBlock_3	33	n/a	n/a	8
133.164	n/a	66582	dot_no1_ON	11	n/a	n/a	8
133.744	n/a	66872	dot_no1_OFF	21	n/a	n/a	8
135.066	n/a	67533	dot_no6_ON	16	n/a	n/a	8
135.654	n/a	67827	dot_no6_OFF	26	n/a	n/a	8
136.974	n/a	68487	dot_no4_ON	14	n/a	n/a	8
137.564	n/a	68782	dot_no4_OFF	24	n/a	n/a	8
138.884	n/a	69442	dot_no2_ON	12	n/a	n/a	8
139.464	n/a	69732	dot_no2_OFF	22	n/a	n/a	8
140.784	n/a	70392	dot_no7_ON	17	n/a	n/a	8
141.364	n/a	70682	dot_no7_OFF	27	n/a	n/a	8
142.684	n/a	71342	dot_no3_ON	13	n/a	n/a	8
143.274	n/a	71637	dot_no3_OFF	23	n/a	n/a	8
144.594	n/a	72297	dot_no8_ON	18	n/a	n/a	8
145.174	n/a	72587	dot_no8_OFF	28	n/a	n/a	8
146.494	n/a	73247	dot_no5_ON	15	n/a	n/a	8
147.074	n/a	73537	dot_no5_OFF	25	n/a	n/a	8
148.394	n/a	74197	dot_no2_ON	12	n/a	n/a	8
148.974	n/a	74487	dot_no2_OFF	22	n/a	n/a	8
150.294	n/a	75147	dot_no7_ON	17	n/a	n/a	8
150.874	n/a	75437	dot_no7_OFF	27	1-6-4-2-7-3-5-2-7-3	1-6-4-2-7-3-8-5-2-7	8
188.898	n/a	94449	learningBlock_4	34	n/a	n/a	8
188.906	n/a	94453	dot_no1_ON	11	n/a	n/a	8
189.486	n/a	94743	dot_no1_OFF	21	n/a	n/a	8
190.806	n/a	95403	dot_no6_ON	16	n/a	n/a	8
191.386	n/a	95693	dot_no6_OFF	26	n/a	n/a	8
192.706	n/a	96353	dot_no4_ON	14	n/a	n/a	8
193.286	n/a	96643	dot_no4_OFF	24	n/a	n/a	8
194.606	n/a	97303	dot_no2_ON	12	n/a	n/a	8
195.186	n/a	97593	dot_no2_OFF	22	n/a	n/a	8
196.506	n/a	98253	dot_no7_ON	17	n/a	n/a	8
197.096	n/a	98548	dot_no7_OFF	27	n/a	n/a	8
198.418	n/a	99209	dot_no3_ON	13	n/a	n/a	8
199.006	n/a	99503	dot_no3_OFF	23	n/a	n/a	8
200.326	n/a	100163	dot_no8_ON	18	n/a	n/a	8
200.906	n/a	100453	dot_no8_OFF	28	n/a	n/a	8
202.226	n/a	101113	dot_no5_ON	15	n/a	n/a	8
202.816	n/a	101408	dot_no5_OFF	25	n/a	n/a	8
204.136	n/a	102068	dot_no2_ON	12	n/a	n/a	8
204.716	n/a	102358	dot_no2_OFF	22	n/a	n/a	8
206.036	n/a	103018	dot_no7_ON	17	n/a	n/a	8
206.616	n/a	103308	dot_no7_OFF	27	1-6-4-2-7-3-5-8-2-7	1-6-4-2-7-3-8-5-2-7	8
226.738	n/a	113369	learningBlock_5	35	n/a	n/a	8
226.746	n/a	113373	dot_no1_ON	11	n/a	n/a	8
227.326	n/a	113663	dot_no1_OFF	21	n/a	n/a	8
228.646	n/a	114323	dot_no6_ON	16	n/a	n/a	8
229.226	n/a	114613	dot_no6_OFF	26	n/a	n/a	8
230.546	n/a	115273	dot_no4_ON	14	n/a	n/a	8
231.126	n/a	115563	dot_no4_OFF	24	n/a	n/a	8
232.446	n/a	116223	dot_no2_ON	12	n/a	n/a	8
233.026	n/a	116513	dot_no2_OFF	22	n/a	n/a	8
234.346	n/a	117173	dot_no7_ON	17	n/a	n/a	8
234.936	n/a	117468	dot_no7_OFF	27	n/a	n/a	8
236.256	n/a	118128	dot_no3_ON	13	n/a	n/a	8
236.836	n/a	118418	dot_no3_OFF	23	n/a	n/a	8
238.156	n/a	119078	dot_no8_ON	18	n/a	n/a	8
238.736	n/a	119368	dot_no8_OFF	28	n/a	n/a	8
240.056	n/a	120028	dot_no5_ON	15	n/a	n/a	8
240.636	n/a	120318	dot_no5_OFF	25	n/a	n/a	8
241.956	n/a	120978	dot_no2_ON	12	n/a	n/a	8
242.536	n/a	121268	dot_no2_OFF	22	n/a	n/a	8
243.856	n/a	121928	dot_no7_ON	17	n/a	n/a	8
244.436	n/a	122218	dot_no7_OFF	27	1-6-4-2-7-3-8-5-2-7	1-6-4-2-7-3-8-5-2-7	8
266.42	n/a	133210	seqLearning_stop	50	n/a	n/a	8
268.879	n/a	134439.5	boundary	boundary	n/a	n/a	8
