onset	duration	sample	value	event_code	user_answer	correct_answer	target_count
0	n/a	0	break cnt	break cnt	n/a	n/a	8
138.724	n/a	69362	seqLearning_start	91	n/a	n/a	8
148.038	n/a	74019	learningBlock_1	31	n/a	n/a	8
148.056	n/a	74028	dot_no1_ON	11	n/a	n/a	8
148.646	n/a	74323	dot_no1_OFF	21	n/a	n/a	8
149.966	n/a	74983	dot_no6_ON	16	n/a	n/a	8
150.554	n/a	75277	dot_no6_OFF	26	n/a	n/a	8
151.876	n/a	75938	dot_no4_ON	14	n/a	n/a	8
152.466	n/a	76233	dot_no4_OFF	24	n/a	n/a	8
153.786	n/a	76893	dot_no2_ON	12	n/a	n/a	8
154.376	n/a	77188	dot_no2_OFF	22	n/a	n/a	8
155.696	n/a	77848	dot_no7_ON	17	n/a	n/a	8
156.286	n/a	78143	dot_no7_OFF	27	n/a	n/a	8
157.606	n/a	78803	dot_no3_ON	13	n/a	n/a	8
158.196	n/a	79098	dot_no3_OFF	23	n/a	n/a	8
159.516	n/a	79758	dot_no8_ON	18	n/a	n/a	8
160.104	n/a	80052	dot_no8_OFF	28	n/a	n/a	8
161.426	n/a	80713	dot_no5_ON	15	n/a	n/a	8
162.014	n/a	81007	dot_no5_OFF	25	n/a	n/a	8
163.336	n/a	81668	dot_no2_ON	12	n/a	n/a	8
163.924	n/a	81962	dot_no2_OFF	22	n/a	n/a	8
165.246	n/a	82623	dot_no7_ON	17	n/a	n/a	8
165.834	n/a	82917	dot_no7_OFF	27	1-6-4-7-8-5-3-2-2-2	1-6-4-2-7-3-8-5-2-7	8
219.302	n/a	109651	learningBlock_2	32	n/a	n/a	8
219.316	n/a	109658	dot_no1_ON	11	n/a	n/a	8
219.904	n/a	109952	dot_no1_OFF	21	n/a	n/a	8
221.226	n/a	110613	dot_no6_ON	16	n/a	n/a	8
221.816	n/a	110908	dot_no6_OFF	26	n/a	n/a	8
223.136	n/a	111568	dot_no4_ON	14	n/a	n/a	8
223.726	n/a	111863	dot_no4_OFF	24	n/a	n/a	8
225.046	n/a	112523	dot_no2_ON	12	n/a	n/a	8
225.636	n/a	112818	dot_no2_OFF	22	n/a	n/a	8
226.956	n/a	113478	dot_no7_ON	17	n/a	n/a	8
227.544	n/a	113772	dot_no7_OFF	27	n/a	n/a	8
228.866	n/a	114433	dot_no3_ON	13	n/a	n/a	8
229.454	n/a	114727	dot_no3_OFF	23	n/a	n/a	8
230.776	n/a	115388	dot_no8_ON	18	n/a	n/a	8
231.366	n/a	115683	dot_no8_OFF	28	n/a	n/a	8
232.686	n/a	116343	dot_no5_ON	15	n/a	n/a	8
233.276	n/a	116638	dot_no5_OFF	25	n/a	n/a	8
234.596	n/a	117298	dot_no2_ON	12	n/a	n/a	8
235.186	n/a	117593	dot_no2_OFF	22	n/a	n/a	8
236.506	n/a	118253	dot_no7_ON	17	n/a	n/a	8
237.096	n/a	118548	dot_no7_OFF	27	1-6-4-2-8-5-3-7-2-7	1-6-4-2-7-3-8-5-2-7	8
269.932	n/a	134966	learningBlock_3	33	n/a	n/a	8
269.946	n/a	134973	dot_no1_ON	11	n/a	n/a	8
270.536	n/a	135268	dot_no1_OFF	21	n/a	n/a	8
271.856	n/a	135928	dot_no6_ON	16	n/a	n/a	8
272.444	n/a	136222	dot_no6_OFF	26	n/a	n/a	8
273.766	n/a	136883	dot_no4_ON	14	n/a	n/a	8
274.356	n/a	137178	dot_no4_OFF	24	n/a	n/a	8
275.676	n/a	137838	dot_no2_ON	12	n/a	n/a	8
276.266	n/a	138133	dot_no2_OFF	22	n/a	n/a	8
277.586	n/a	138793	dot_no7_ON	17	n/a	n/a	8
278.176	n/a	139088	dot_no7_OFF	27	n/a	n/a	8
279.496	n/a	139748	dot_no3_ON	13	n/a	n/a	8
280.086	n/a	140043	dot_no3_OFF	23	n/a	n/a	8
281.406	n/a	140703	dot_no8_ON	18	n/a	n/a	8
281.996	n/a	140998	dot_no8_OFF	28	n/a	n/a	8
283.316	n/a	141658	dot_no5_ON	15	n/a	n/a	8
283.906	n/a	141953	dot_no5_OFF	25	n/a	n/a	8
285.226	n/a	142613	dot_no2_ON	12	n/a	n/a	8
285.816	n/a	142908	dot_no2_OFF	22	n/a	n/a	8
287.136	n/a	143568	dot_no7_ON	17	n/a	n/a	8
287.726	n/a	143863	dot_no7_OFF	27	1-6-4-7-7-7-7-7-7-8	1-6-4-2-7-3-8-5-2-7	8
330.204	n/a	165102	learningBlock_4	34	n/a	n/a	8
330.216	n/a	165108	dot_no1_ON	11	n/a	n/a	8
330.806	n/a	165403	dot_no1_OFF	21	n/a	n/a	8
332.126	n/a	166063	dot_no6_ON	16	n/a	n/a	8
332.716	n/a	166358	dot_no6_OFF	26	n/a	n/a	8
334.036	n/a	167018	dot_no4_ON	14	n/a	n/a	8
334.626	n/a	167313	dot_no4_OFF	24	n/a	n/a	8
335.946	n/a	167973	dot_no2_ON	12	n/a	n/a	8
336.536	n/a	168268	dot_no2_OFF	22	n/a	n/a	8
337.856	n/a	168928	dot_no7_ON	17	n/a	n/a	8
338.446	n/a	169223	dot_no7_OFF	27	n/a	n/a	8
339.766	n/a	169883	dot_no3_ON	13	n/a	n/a	8
340.356	n/a	170178	dot_no3_OFF	23	n/a	n/a	8
341.676	n/a	170838	dot_no8_ON	18	n/a	n/a	8
342.266	n/a	171133	dot_no8_OFF	28	n/a	n/a	8
343.586	n/a	171793	dot_no5_ON	15	n/a	n/a	8
344.176	n/a	172088	dot_no5_OFF	25	n/a	n/a	8
345.496	n/a	172748	dot_no2_ON	12	n/a	n/a	8
346.086	n/a	173043	dot_no2_OFF	22	n/a	n/a	8
347.408	n/a	173704	dot_no7_ON	17	n/a	n/a	8
347.996	n/a	173998	dot_no7_OFF	27	1-6-4-7-2-3-8-5-7-2	1-6-4-2-7-3-8-5-2-7	8
372.44	n/a	186220	learningBlock_5	35	n/a	n/a	8
372.458	n/a	186229	dot_no1_ON	11	n/a	n/a	8
373.046	n/a	186523	dot_no1_OFF	21	n/a	n/a	8
374.368	n/a	187184	dot_no6_ON	16	n/a	n/a	8
374.956	n/a	187478	dot_no6_OFF	26	n/a	n/a	8
376.276	n/a	188138	dot_no4_ON	14	n/a	n/a	8
376.866	n/a	188433	dot_no4_OFF	24	n/a	n/a	8
378.186	n/a	189093	dot_no2_ON	12	n/a	n/a	8
378.776	n/a	189388	dot_no2_OFF	22	n/a	n/a	8
380.096	n/a	190048	dot_no7_ON	17	n/a	n/a	8
380.686	n/a	190343	dot_no7_OFF	27	n/a	n/a	8
382.006	n/a	191003	dot_no3_ON	13	n/a	n/a	8
382.596	n/a	191298	dot_no3_OFF	23	n/a	n/a	8
383.916	n/a	191958	dot_no8_ON	18	n/a	n/a	8
384.506	n/a	192253	dot_no8_OFF	28	n/a	n/a	8
385.826	n/a	192913	dot_no5_ON	15	n/a	n/a	8
386.416	n/a	193208	dot_no5_OFF	25	n/a	n/a	8
387.736	n/a	193868	dot_no2_ON	12	n/a	n/a	8
388.326	n/a	194163	dot_no2_OFF	22	n/a	n/a	8
389.646	n/a	194823	dot_no7_ON	17	n/a	n/a	8
390.236	n/a	195118	dot_no7_OFF	27	1-6-4-2-7-3-8-5-2-7	1-6-4-2-7-3-8-5-2-7	8
410.196	n/a	205098	seqLearning_stop	50	n/a	n/a	8
411.157	n/a	205578.5	boundary	boundary	n/a	n/a	8
