onset	duration	sample	value	event_code	user_answer	correct_answer	target_count
0	n/a	0	break cnt	break cnt	n/a	n/a	8
28.38	n/a	14190	seqLearning_start	91	n/a	n/a	8
34.626	n/a	17313	learningBlock_1	31	n/a	n/a	8
34.648	n/a	17324	dot_no1_ON	11	n/a	n/a	8
35.238	n/a	17619	dot_no1_OFF	21	n/a	n/a	8
36.556	n/a	18278	dot_no6_ON	16	n/a	n/a	8
37.136	n/a	18568	dot_no6_OFF	26	n/a	n/a	8
38.456	n/a	19228	dot_no4_ON	14	n/a	n/a	8
39.036	n/a	19518	dot_no4_OFF	24	n/a	n/a	8
40.356	n/a	20178	dot_no2_ON	12	n/a	n/a	8
40.936	n/a	20468	dot_no2_OFF	22	n/a	n/a	8
42.256	n/a	21128	dot_no7_ON	17	n/a	n/a	8
42.836	n/a	21418	dot_no7_OFF	27	n/a	n/a	8
44.156	n/a	22078	dot_no3_ON	13	n/a	n/a	8
44.736	n/a	22368	dot_no3_OFF	23	n/a	n/a	8
46.056	n/a	23028	dot_no8_ON	18	n/a	n/a	8
46.636	n/a	23318	dot_no8_OFF	28	n/a	n/a	8
47.956	n/a	23978	dot_no5_ON	15	n/a	n/a	8
48.536	n/a	24268	dot_no5_OFF	25	n/a	n/a	8
49.856	n/a	24928	dot_no2_ON	12	n/a	n/a	8
50.436	n/a	25218	dot_no2_OFF	22	n/a	n/a	8
51.756	n/a	25878	dot_no7_ON	17	n/a	n/a	8
52.338	n/a	26169	dot_no7_OFF	27	2-6-4-1-5-3-8-7-2-7	1-6-4-2-7-3-8-5-2-7	8
108.082	n/a	54041	learningBlock_2	32	n/a	n/a	8
108.088	n/a	54044	dot_no1_ON	11	n/a	n/a	8
108.668	n/a	54334	dot_no1_OFF	21	n/a	n/a	8
109.988	n/a	54994	dot_no6_ON	16	n/a	n/a	8
110.568	n/a	55284	dot_no6_OFF	26	n/a	n/a	8
111.888	n/a	55944	dot_no4_ON	14	n/a	n/a	8
112.468	n/a	56234	dot_no4_OFF	24	n/a	n/a	8
113.788	n/a	56894	dot_no2_ON	12	n/a	n/a	8
114.368	n/a	57184	dot_no2_OFF	22	n/a	n/a	8
115.688	n/a	57844	dot_no7_ON	17	n/a	n/a	8
116.268	n/a	58134	dot_no7_OFF	27	n/a	n/a	8
117.588	n/a	58794	dot_no3_ON	13	n/a	n/a	8
118.168	n/a	59084	dot_no3_OFF	23	n/a	n/a	8
119.488	n/a	59744	dot_no8_ON	18	n/a	n/a	8
120.068	n/a	60034	dot_no8_OFF	28	n/a	n/a	8
121.388	n/a	60694	dot_no5_ON	15	n/a	n/a	8
121.968	n/a	60984	dot_no5_OFF	25	n/a	n/a	8
123.288	n/a	61644	dot_no2_ON	12	n/a	n/a	8
123.868	n/a	61934	dot_no2_OFF	22	n/a	n/a	8
125.188	n/a	62594	dot_no7_ON	17	n/a	n/a	8
125.768	n/a	62884	dot_no7_OFF	27	1-4-6-2-7-3-8-5-2-6	1-6-4-2-7-3-8-5-2-7	8
151.22	n/a	75610	learningBlock_3	33	n/a	n/a	8
151.23	n/a	75615	dot_no1_ON	11	n/a	n/a	8
151.808	n/a	75904	dot_no1_OFF	21	n/a	n/a	8
153.128	n/a	76564	dot_no6_ON	16	n/a	n/a	8
153.708	n/a	76854	dot_no6_OFF	26	n/a	n/a	8
155.028	n/a	77514	dot_no4_ON	14	n/a	n/a	8
155.61	n/a	77805	dot_no4_OFF	24	n/a	n/a	8
156.93	n/a	78465	dot_no2_ON	12	n/a	n/a	8
157.51	n/a	78755	dot_no2_OFF	22	n/a	n/a	8
158.83	n/a	79415	dot_no7_ON	17	n/a	n/a	8
159.41	n/a	79705	dot_no7_OFF	27	n/a	n/a	8
160.73	n/a	80365	dot_no3_ON	13	n/a	n/a	8
161.31	n/a	80655	dot_no3_OFF	23	n/a	n/a	8
162.63	n/a	81315	dot_no8_ON	18	n/a	n/a	8
163.21	n/a	81605	dot_no8_OFF	28	n/a	n/a	8
164.53	n/a	82265	dot_no5_ON	15	n/a	n/a	8
165.11	n/a	82555	dot_no5_OFF	25	n/a	n/a	8
166.43	n/a	83215	dot_no2_ON	12	n/a	n/a	8
167.02	n/a	83510	dot_no2_OFF	22	n/a	n/a	8
168.34	n/a	84170	dot_no7_ON	17	n/a	n/a	8
168.92	n/a	84460	dot_no7_OFF	27	2-6-1-4-2-7-8-3-5-2	1-6-4-2-7-3-8-5-2-7	8
200.944	n/a	100472	learningBlock_4	34	n/a	n/a	8
200.95	n/a	100475	dot_no1_ON	11	n/a	n/a	8
201.53	n/a	100765	dot_no1_OFF	21	n/a	n/a	8
202.85	n/a	101425	dot_no6_ON	16	n/a	n/a	8
203.44	n/a	101720	dot_no6_OFF	26	n/a	n/a	8
204.76	n/a	102380	dot_no4_ON	14	n/a	n/a	8
205.34	n/a	102670	dot_no4_OFF	24	n/a	n/a	8
206.66	n/a	103330	dot_no2_ON	12	n/a	n/a	8
207.24	n/a	103620	dot_no2_OFF	22	n/a	n/a	8
208.56	n/a	104280	dot_no7_ON	17	n/a	n/a	8
209.14	n/a	104570	dot_no7_OFF	27	n/a	n/a	8
210.46	n/a	105230	dot_no3_ON	13	n/a	n/a	8
211.04	n/a	105520	dot_no3_OFF	23	n/a	n/a	8
212.36	n/a	106180	dot_no8_ON	18	n/a	n/a	8
212.94	n/a	106470	dot_no8_OFF	28	n/a	n/a	8
214.26	n/a	107130	dot_no5_ON	15	n/a	n/a	8
214.85	n/a	107425	dot_no5_OFF	25	n/a	n/a	8
216.17	n/a	108085	dot_no2_ON	12	n/a	n/a	8
216.76	n/a	108380	dot_no2_OFF	22	n/a	n/a	8
218.08	n/a	109040	dot_no7_ON	17	n/a	n/a	8
218.66	n/a	109330	dot_no7_OFF	27	2-6-4-1-3-2-7-3-8-5	1-6-4-2-7-3-8-5-2-7	8
265.514	n/a	132757	learningBlock_5	35	n/a	n/a	8
265.522	n/a	132761	dot_no1_ON	11	n/a	n/a	8
266.102	n/a	133051	dot_no1_OFF	21	n/a	n/a	8
267.422	n/a	133711	dot_no6_ON	16	n/a	n/a	8
268.002	n/a	134001	dot_no6_OFF	26	n/a	n/a	8
269.322	n/a	134661	dot_no4_ON	14	n/a	n/a	8
269.902	n/a	134951	dot_no4_OFF	24	n/a	n/a	8
271.222	n/a	135611	dot_no2_ON	12	n/a	n/a	8
271.812	n/a	135906	dot_no2_OFF	22	n/a	n/a	8
273.132	n/a	136566	dot_no7_ON	17	n/a	n/a	8
273.712	n/a	136856	dot_no7_OFF	27	n/a	n/a	8
275.032	n/a	137516	dot_no3_ON	13	n/a	n/a	8
275.612	n/a	137806	dot_no3_OFF	23	n/a	n/a	8
276.932	n/a	138466	dot_no8_ON	18	n/a	n/a	8
277.512	n/a	138756	dot_no8_OFF	28	n/a	n/a	8
278.832	n/a	139416	dot_no5_ON	15	n/a	n/a	8
279.412	n/a	139706	dot_no5_OFF	25	n/a	n/a	8
280.732	n/a	140366	dot_no2_ON	12	n/a	n/a	8
281.312	n/a	140656	dot_no2_OFF	22	n/a	n/a	8
282.632	n/a	141316	dot_no7_ON	17	n/a	n/a	8
283.222	n/a	141611	dot_no7_OFF	27	1-6-4-2-7-3-8-5-2-7	1-6-4-2-7-3-8-5-2-7	8
309.644	n/a	154822	seqLearning_stop	50	n/a	n/a	8
312.123	n/a	156061.5	boundary	boundary	n/a	n/a	8
