onset	duration	sample	value	event_code	user_answer	correct_answer	target_count
0	n/a	0	break cnt	break cnt	n/a	n/a	6
90.716	n/a	45358	seqLearning_start	91	n/a	n/a	6
100.054	n/a	50027	learningBlock_1	31	n/a	n/a	6
100.092	n/a	50046	dot_no1_ON	11	n/a	n/a	6
100.68	n/a	50340	dot_no1_OFF	21	n/a	n/a	6
102.002	n/a	51001	dot_no6_ON	16	n/a	n/a	6
102.59	n/a	51295	dot_no6_OFF	26	n/a	n/a	6
103.91	n/a	51955	dot_no4_ON	14	n/a	n/a	6
104.5	n/a	52250	dot_no4_OFF	24	n/a	n/a	6
105.822	n/a	52911	dot_no2_ON	12	n/a	n/a	6
106.41	n/a	53205	dot_no2_OFF	22	n/a	n/a	6
107.732	n/a	53866	dot_no3_ON	13	n/a	n/a	6
108.322	n/a	54161	dot_no3_OFF	23	n/a	n/a	6
109.642	n/a	54821	dot_no5_ON	15	n/a	n/a	6
110.23	n/a	55115	dot_no5_OFF	25	n/a	n/a	6
111.55	n/a	55775	dot_no2_ON	12	n/a	n/a	6
112.14	n/a	56070	dot_no2_OFF	22	1-4-2-5-6-3-2	1-6-4-2-3-5-2	6
167.97	n/a	83985	learningBlock_2	32	n/a	n/a	6
167.982	n/a	83991	dot_no1_ON	11	n/a	n/a	6
168.572	n/a	84286	dot_no1_OFF	21	n/a	n/a	6
169.892	n/a	84946	dot_no6_ON	16	n/a	n/a	6
170.482	n/a	85241	dot_no6_OFF	26	n/a	n/a	6
171.802	n/a	85901	dot_no4_ON	14	n/a	n/a	6
172.39	n/a	86195	dot_no4_OFF	24	n/a	n/a	6
173.712	n/a	86856	dot_no2_ON	12	n/a	n/a	6
174.3	n/a	87150	dot_no2_OFF	22	n/a	n/a	6
175.622	n/a	87811	dot_no3_ON	13	n/a	n/a	6
176.21	n/a	88105	dot_no3_OFF	23	n/a	n/a	6
177.532	n/a	88766	dot_no5_ON	15	n/a	n/a	6
178.12	n/a	89060	dot_no5_OFF	25	n/a	n/a	6
179.442	n/a	89721	dot_no2_ON	12	n/a	n/a	6
180.03	n/a	90015	dot_no2_OFF	22	1-6-4-2-3-5-3	1-6-4-2-3-5-2	6
227.976	n/a	113988	learningBlock_3	33	n/a	n/a	6
227.992	n/a	113996	dot_no1_ON	11	n/a	n/a	6
228.582	n/a	114291	dot_no1_OFF	21	n/a	n/a	6
229.902	n/a	114951	dot_no6_ON	16	n/a	n/a	6
230.492	n/a	115246	dot_no6_OFF	26	n/a	n/a	6
231.812	n/a	115906	dot_no4_ON	14	n/a	n/a	6
232.402	n/a	116201	dot_no4_OFF	24	n/a	n/a	6
233.722	n/a	116861	dot_no2_ON	12	n/a	n/a	6
234.322	n/a	117161	dot_no2_OFF	22	n/a	n/a	6
235.642	n/a	117821	dot_no3_ON	13	n/a	n/a	6
236.23	n/a	118115	dot_no3_OFF	23	n/a	n/a	6
237.552	n/a	118776	dot_no5_ON	15	n/a	n/a	6
238.14	n/a	119070	dot_no5_OFF	25	n/a	n/a	6
239.462	n/a	119731	dot_no2_ON	12	n/a	n/a	6
240.052	n/a	120026	dot_no2_OFF	22	1-6-4-2-3-5-2	1-6-4-2-3-5-2	6
280.66	n/a	140330	learningBlock_4	34	n/a	n/a	6
280.672	n/a	140336	dot_no1_ON	11	n/a	n/a	6
281.262	n/a	140631	dot_no1_OFF	21	n/a	n/a	6
282.582	n/a	141291	dot_no6_ON	16	n/a	n/a	6
283.17	n/a	141585	dot_no6_OFF	26	n/a	n/a	6
284.492	n/a	142246	dot_no4_ON	14	n/a	n/a	6
285.082	n/a	142541	dot_no4_OFF	24	n/a	n/a	6
286.402	n/a	143201	dot_no2_ON	12	n/a	n/a	6
286.992	n/a	143496	dot_no2_OFF	22	n/a	n/a	6
288.312	n/a	144156	dot_no3_ON	13	n/a	n/a	6
288.9	n/a	144450	dot_no3_OFF	23	n/a	n/a	6
290.222	n/a	145111	dot_no5_ON	15	n/a	n/a	6
290.812	n/a	145406	dot_no5_OFF	25	n/a	n/a	6
292.132	n/a	146066	dot_no2_ON	12	n/a	n/a	6
292.722	n/a	146361	dot_no2_OFF	22	1-6-4-2-3-5-2	1-6-4-2-3-5-2	6
330.064	n/a	165032	learningBlock_5	35	n/a	n/a	6
330.072	n/a	165036	dot_no1_ON	11	n/a	n/a	6
330.662	n/a	165331	dot_no1_OFF	21	n/a	n/a	6
331.982	n/a	165991	dot_no6_ON	16	n/a	n/a	6
332.572	n/a	166286	dot_no6_OFF	26	n/a	n/a	6
333.892	n/a	166946	dot_no4_ON	14	n/a	n/a	6
334.482	n/a	167241	dot_no4_OFF	24	n/a	n/a	6
335.802	n/a	167901	dot_no2_ON	12	n/a	n/a	6
336.392	n/a	168196	dot_no2_OFF	22	n/a	n/a	6
337.712	n/a	168856	dot_no3_ON	13	n/a	n/a	6
338.302	n/a	169151	dot_no3_OFF	23	n/a	n/a	6
339.622	n/a	169811	dot_no5_ON	15	n/a	n/a	6
340.212	n/a	170106	dot_no5_OFF	25	n/a	n/a	6
341.532	n/a	170766	dot_no2_ON	12	n/a	n/a	6
342.122	n/a	171061	dot_no2_OFF	22	1-6-4-2-3-5-2	1-6-4-2-3-5-2	6
369.58	n/a	184790	seqLearning_stop	50	n/a	n/a	6
371.207	n/a	185603.5	boundary	boundary	n/a	n/a	6
