onset	duration	sample	value	event_code	user_answer	correct_answer	target_count
0	n/a	0	break cnt	break cnt	n/a	n/a	8
82.152	n/a	41076	seqLearning_start	91	n/a	n/a	8
91.492	n/a	45746	learningBlock_1	31	n/a	n/a	8
91.508	n/a	45754	dot_no1_ON	11	n/a	n/a	8
92.098	n/a	46049	dot_no1_OFF	21	n/a	n/a	8
93.418	n/a	46709	dot_no6_ON	16	n/a	n/a	8
94.008	n/a	47004	dot_no6_OFF	26	n/a	n/a	8
95.328	n/a	47664	dot_no4_ON	14	n/a	n/a	8
95.916	n/a	47958	dot_no4_OFF	24	n/a	n/a	8
97.238	n/a	48619	dot_no2_ON	12	n/a	n/a	8
97.826	n/a	48913	dot_no2_OFF	22	n/a	n/a	8
99.148	n/a	49574	dot_no7_ON	17	n/a	n/a	8
99.736	n/a	49868	dot_no7_OFF	27	n/a	n/a	8
101.058	n/a	50529	dot_no3_ON	13	n/a	n/a	8
101.648	n/a	50824	dot_no3_OFF	23	n/a	n/a	8
102.968	n/a	51484	dot_no8_ON	18	n/a	n/a	8
103.556	n/a	51778	dot_no8_OFF	28	n/a	n/a	8
104.878	n/a	52439	dot_no5_ON	15	n/a	n/a	8
105.466	n/a	52733	dot_no5_OFF	25	n/a	n/a	8
106.788	n/a	53394	dot_no2_ON	12	n/a	n/a	8
107.378	n/a	53689	dot_no2_OFF	22	n/a	n/a	8
108.698	n/a	54349	dot_no7_ON	17	n/a	n/a	8
109.286	n/a	54643	dot_no7_OFF	27	1-6-3-7-4-5-2-7-3-8	1-6-4-2-7-3-8-5-2-7	8
146.816	n/a	73408	learningBlock_2	32	n/a	n/a	8
146.828	n/a	73414	dot_no1_ON	11	n/a	n/a	8
147.418	n/a	73709	dot_no1_OFF	21	n/a	n/a	8
148.738	n/a	74369	dot_no6_ON	16	n/a	n/a	8
149.328	n/a	74664	dot_no6_OFF	26	n/a	n/a	8
150.648	n/a	75324	dot_no4_ON	14	n/a	n/a	8
151.236	n/a	75618	dot_no4_OFF	24	n/a	n/a	8
152.558	n/a	76279	dot_no2_ON	12	n/a	n/a	8
153.148	n/a	76574	dot_no2_OFF	22	n/a	n/a	8
154.468	n/a	77234	dot_no7_ON	17	n/a	n/a	8
155.058	n/a	77529	dot_no7_OFF	27	n/a	n/a	8
156.378	n/a	78189	dot_no3_ON	13	n/a	n/a	8
156.968	n/a	78484	dot_no3_OFF	23	n/a	n/a	8
158.288	n/a	79144	dot_no8_ON	18	n/a	n/a	8
158.878	n/a	79439	dot_no8_OFF	28	n/a	n/a	8
160.198	n/a	80099	dot_no5_ON	15	n/a	n/a	8
160.786	n/a	80393	dot_no5_OFF	25	n/a	n/a	8
162.108	n/a	81054	dot_no2_ON	12	n/a	n/a	8
162.698	n/a	81349	dot_no2_OFF	22	n/a	n/a	8
164.018	n/a	82009	dot_no7_ON	17	n/a	n/a	8
164.606	n/a	82303	dot_no7_OFF	27	1-6-4-2-7-8-3-5-4-6	1-6-4-2-7-3-8-5-2-7	8
195.046	n/a	97523	learningBlock_3	33	n/a	n/a	8
195.058	n/a	97529	dot_no1_ON	11	n/a	n/a	8
195.648	n/a	97824	dot_no1_OFF	21	n/a	n/a	8
196.968	n/a	98484	dot_no6_ON	16	n/a	n/a	8
197.558	n/a	98779	dot_no6_OFF	26	n/a	n/a	8
198.878	n/a	99439	dot_no4_ON	14	n/a	n/a	8
199.468	n/a	99734	dot_no4_OFF	24	n/a	n/a	8
200.79	n/a	100395	dot_no2_ON	12	n/a	n/a	8
201.378	n/a	100689	dot_no2_OFF	22	n/a	n/a	8
202.698	n/a	101349	dot_no7_ON	17	n/a	n/a	8
203.288	n/a	101644	dot_no7_OFF	27	n/a	n/a	8
204.608	n/a	102304	dot_no3_ON	13	n/a	n/a	8
205.198	n/a	102599	dot_no3_OFF	23	n/a	n/a	8
206.518	n/a	103259	dot_no8_ON	18	n/a	n/a	8
207.108	n/a	103554	dot_no8_OFF	28	n/a	n/a	8
208.428	n/a	104214	dot_no5_ON	15	n/a	n/a	8
209.018	n/a	104509	dot_no5_OFF	25	n/a	n/a	8
210.338	n/a	105169	dot_no2_ON	12	n/a	n/a	8
210.928	n/a	105464	dot_no2_OFF	22	n/a	n/a	8
212.248	n/a	106124	dot_no7_ON	17	n/a	n/a	8
212.838	n/a	106419	dot_no7_OFF	27	1-6-4-2-7-3-5-8-6-4	1-6-4-2-7-3-8-5-2-7	8
240.678	n/a	120339	learningBlock_4	34	n/a	n/a	8
240.688	n/a	120344	dot_no1_ON	11	n/a	n/a	8
241.278	n/a	120639	dot_no1_OFF	21	n/a	n/a	8
242.598	n/a	121299	dot_no6_ON	16	n/a	n/a	8
243.188	n/a	121594	dot_no6_OFF	26	n/a	n/a	8
244.508	n/a	122254	dot_no4_ON	14	n/a	n/a	8
245.098	n/a	122549	dot_no4_OFF	24	n/a	n/a	8
246.418	n/a	123209	dot_no2_ON	12	n/a	n/a	8
247.008	n/a	123504	dot_no2_OFF	22	n/a	n/a	8
248.328	n/a	124164	dot_no7_ON	17	n/a	n/a	8
248.918	n/a	124459	dot_no7_OFF	27	n/a	n/a	8
250.238	n/a	125119	dot_no3_ON	13	n/a	n/a	8
250.828	n/a	125414	dot_no3_OFF	23	n/a	n/a	8
252.148	n/a	126074	dot_no8_ON	18	n/a	n/a	8
252.738	n/a	126369	dot_no8_OFF	28	n/a	n/a	8
254.058	n/a	127029	dot_no5_ON	15	n/a	n/a	8
254.648	n/a	127324	dot_no5_OFF	25	n/a	n/a	8
255.968	n/a	127984	dot_no2_ON	12	n/a	n/a	8
256.558	n/a	128279	dot_no2_OFF	22	n/a	n/a	8
257.88	n/a	128940	dot_no7_ON	17	n/a	n/a	8
258.468	n/a	129234	dot_no7_OFF	27	1-6-4-2-7-3-5-8-1-4	1-6-4-2-7-3-8-5-2-7	8
281.486	n/a	140743	learningBlock_5	35	n/a	n/a	8
281.498	n/a	140749	dot_no1_ON	11	n/a	n/a	8
282.088	n/a	141044	dot_no1_OFF	21	n/a	n/a	8
283.408	n/a	141704	dot_no6_ON	16	n/a	n/a	8
283.998	n/a	141999	dot_no6_OFF	26	n/a	n/a	8
285.318	n/a	142659	dot_no4_ON	14	n/a	n/a	8
285.908	n/a	142954	dot_no4_OFF	24	n/a	n/a	8
287.228	n/a	143614	dot_no2_ON	12	n/a	n/a	8
287.818	n/a	143909	dot_no2_OFF	22	n/a	n/a	8
289.138	n/a	144569	dot_no7_ON	17	n/a	n/a	8
289.728	n/a	144864	dot_no7_OFF	27	n/a	n/a	8
291.048	n/a	145524	dot_no3_ON	13	n/a	n/a	8
291.638	n/a	145819	dot_no3_OFF	23	n/a	n/a	8
292.958	n/a	146479	dot_no8_ON	18	n/a	n/a	8
293.548	n/a	146774	dot_no8_OFF	28	n/a	n/a	8
294.868	n/a	147434	dot_no5_ON	15	n/a	n/a	8
295.458	n/a	147729	dot_no5_OFF	25	n/a	n/a	8
296.778	n/a	148389	dot_no2_ON	12	n/a	n/a	8
297.368	n/a	148684	dot_no2_OFF	22	n/a	n/a	8
298.688	n/a	149344	dot_no7_ON	17	n/a	n/a	8
299.278	n/a	149639	dot_no7_OFF	27	1-6-4-2-7-3-5-5-5-8	1-6-4-2-7-3-8-5-2-7	8
319.236	n/a	159618	seqLearning_stop	50	n/a	n/a	8
320.351	n/a	160175.5	boundary	boundary	n/a	n/a	8
