onset	duration	sample	value	event_code	user_answer	correct_answer	target_count
0	n/a	0	break cnt	break cnt	n/a	n/a	8
32.046	n/a	16023	seqLearning_start	91	n/a	n/a	8
38.32	n/a	19160	learningBlock_1	31	n/a	n/a	8
38.35	n/a	19175	dot_no1_ON	11	n/a	n/a	8
38.94	n/a	19470	dot_no1_OFF	21	n/a	n/a	8
40.26	n/a	20130	dot_no6_ON	16	n/a	n/a	8
40.84	n/a	20420	dot_no6_OFF	26	n/a	n/a	8
42.16	n/a	21080	dot_no4_ON	14	n/a	n/a	8
42.75	n/a	21375	dot_no4_OFF	24	n/a	n/a	8
44.07	n/a	22035	dot_no2_ON	12	n/a	n/a	8
44.65	n/a	22325	dot_no2_OFF	22	n/a	n/a	8
45.97	n/a	22985	dot_no7_ON	17	n/a	n/a	8
46.55	n/a	23275	dot_no7_OFF	27	n/a	n/a	8
47.87	n/a	23935	dot_no3_ON	13	n/a	n/a	8
48.45	n/a	24225	dot_no3_OFF	23	n/a	n/a	8
49.77	n/a	24885	dot_no8_ON	18	n/a	n/a	8
50.35	n/a	25175	dot_no8_OFF	28	n/a	n/a	8
51.67	n/a	25835	dot_no5_ON	15	n/a	n/a	8
52.25	n/a	26125	dot_no5_OFF	25	n/a	n/a	8
53.57	n/a	26785	dot_no2_ON	12	n/a	n/a	8
54.15	n/a	27075	dot_no2_OFF	22	n/a	n/a	8
55.47	n/a	27735	dot_no7_ON	17	n/a	n/a	8
56.05	n/a	28025	dot_no7_OFF	27	1-2-3-4-5-6-7-8-3-2	1-6-4-2-7-3-8-5-2-7	8
94.202	n/a	47101	learningBlock_2	32	n/a	n/a	8
94.21	n/a	47105	dot_no1_ON	11	n/a	n/a	8
94.79	n/a	47395	dot_no1_OFF	21	n/a	n/a	8
96.11	n/a	48055	dot_no6_ON	16	n/a	n/a	8
96.7	n/a	48350	dot_no6_OFF	26	n/a	n/a	8
98.02	n/a	49010	dot_no4_ON	14	n/a	n/a	8
98.6	n/a	49300	dot_no4_OFF	24	n/a	n/a	8
99.92	n/a	49960	dot_no2_ON	12	n/a	n/a	8
100.5	n/a	50250	dot_no2_OFF	22	n/a	n/a	8
101.82	n/a	50910	dot_no7_ON	17	n/a	n/a	8
102.412	n/a	51206	dot_no7_OFF	27	n/a	n/a	8
103.73	n/a	51865	dot_no3_ON	13	n/a	n/a	8
104.31	n/a	52155	dot_no3_OFF	23	n/a	n/a	8
105.63	n/a	52815	dot_no8_ON	18	n/a	n/a	8
106.21	n/a	53105	dot_no8_OFF	28	n/a	n/a	8
107.53	n/a	53765	dot_no5_ON	15	n/a	n/a	8
108.11	n/a	54055	dot_no5_OFF	25	n/a	n/a	8
109.43	n/a	54715	dot_no2_ON	12	n/a	n/a	8
110.01	n/a	55005	dot_no2_OFF	22	n/a	n/a	8
111.33	n/a	55665	dot_no7_ON	17	n/a	n/a	8
111.912	n/a	55956	dot_no7_OFF	27	2-3-4-5-6-7-8-1-2-3	1-6-4-2-7-3-8-5-2-7	8
134.134	n/a	67067	learningBlock_3	33	n/a	n/a	8
134.142	n/a	67071	dot_no1_ON	11	n/a	n/a	8
134.722	n/a	67361	dot_no1_OFF	21	n/a	n/a	8
136.042	n/a	68021	dot_no6_ON	16	n/a	n/a	8
136.632	n/a	68316	dot_no6_OFF	26	n/a	n/a	8
137.952	n/a	68976	dot_no4_ON	14	n/a	n/a	8
138.532	n/a	69266	dot_no4_OFF	24	n/a	n/a	8
139.852	n/a	69926	dot_no2_ON	12	n/a	n/a	8
140.432	n/a	70216	dot_no2_OFF	22	n/a	n/a	8
141.752	n/a	70876	dot_no7_ON	17	n/a	n/a	8
142.332	n/a	71166	dot_no7_OFF	27	n/a	n/a	8
143.652	n/a	71826	dot_no3_ON	13	n/a	n/a	8
144.232	n/a	72116	dot_no3_OFF	23	n/a	n/a	8
145.552	n/a	72776	dot_no8_ON	18	n/a	n/a	8
146.132	n/a	73066	dot_no8_OFF	28	n/a	n/a	8
147.452	n/a	73726	dot_no5_ON	15	n/a	n/a	8
148.032	n/a	74016	dot_no5_OFF	25	n/a	n/a	8
149.352	n/a	74676	dot_no2_ON	12	n/a	n/a	8
149.932	n/a	74966	dot_no2_OFF	22	n/a	n/a	8
151.252	n/a	75626	dot_no7_ON	17	n/a	n/a	8
151.842	n/a	75921	dot_no7_OFF	27	8-1-2-3-4-5-6-7-8-1	1-6-4-2-7-3-8-5-2-7	8
172.576	n/a	86288	learningBlock_4	34	n/a	n/a	8
172.582	n/a	86291	dot_no1_ON	11	n/a	n/a	8
173.162	n/a	86581	dot_no1_OFF	21	n/a	n/a	8
174.482	n/a	87241	dot_no6_ON	16	n/a	n/a	8
175.062	n/a	87531	dot_no6_OFF	26	n/a	n/a	8
176.382	n/a	88191	dot_no4_ON	14	n/a	n/a	8
176.962	n/a	88481	dot_no4_OFF	24	n/a	n/a	8
178.282	n/a	89141	dot_no2_ON	12	n/a	n/a	8
178.862	n/a	89431	dot_no2_OFF	22	n/a	n/a	8
180.182	n/a	90091	dot_no7_ON	17	n/a	n/a	8
180.762	n/a	90381	dot_no7_OFF	27	n/a	n/a	8
182.082	n/a	91041	dot_no3_ON	13	n/a	n/a	8
182.662	n/a	91331	dot_no3_OFF	23	n/a	n/a	8
183.982	n/a	91991	dot_no8_ON	18	n/a	n/a	8
184.562	n/a	92281	dot_no8_OFF	28	n/a	n/a	8
185.882	n/a	92941	dot_no5_ON	15	n/a	n/a	8
186.462	n/a	93231	dot_no5_OFF	25	n/a	n/a	8
187.782	n/a	93891	dot_no2_ON	12	n/a	n/a	8
188.362	n/a	94181	dot_no2_OFF	22	n/a	n/a	8
189.682	n/a	94841	dot_no7_ON	17	n/a	n/a	8
190.262	n/a	95131	dot_no7_OFF	27	1-2-3-4-5-6-7-8-1-2	1-6-4-2-7-3-8-5-2-7	8
208.276	n/a	104138	learningBlock_5	35	n/a	n/a	8
208.284	n/a	104142	dot_no1_ON	11	n/a	n/a	8
208.864	n/a	104432	dot_no1_OFF	21	n/a	n/a	8
210.184	n/a	105092	dot_no6_ON	16	n/a	n/a	8
210.764	n/a	105382	dot_no6_OFF	26	n/a	n/a	8
212.084	n/a	106042	dot_no4_ON	14	n/a	n/a	8
212.664	n/a	106332	dot_no4_OFF	24	n/a	n/a	8
213.984	n/a	106992	dot_no2_ON	12	n/a	n/a	8
214.564	n/a	107282	dot_no2_OFF	22	n/a	n/a	8
215.884	n/a	107942	dot_no7_ON	17	n/a	n/a	8
216.464	n/a	108232	dot_no7_OFF	27	n/a	n/a	8
217.784	n/a	108892	dot_no3_ON	13	n/a	n/a	8
218.364	n/a	109182	dot_no3_OFF	23	n/a	n/a	8
219.684	n/a	109842	dot_no8_ON	18	n/a	n/a	8
220.264	n/a	110132	dot_no8_OFF	28	n/a	n/a	8
221.614	n/a	110807	dot_no5_ON	15	n/a	n/a	8
222.194	n/a	111097	dot_no5_OFF	25	n/a	n/a	8
223.514	n/a	111757	dot_no2_ON	12	n/a	n/a	8
224.094	n/a	112047	dot_no2_OFF	22	n/a	n/a	8
225.414	n/a	112707	dot_no7_ON	17	n/a	n/a	8
225.994	n/a	112997	dot_no7_OFF	27	2-3-4-5-6-7-8-1-2-3	1-6-4-2-7-3-8-5-2-7	8
240.286	n/a	120143	seqLearning_stop	50	n/a	n/a	8
242.875	n/a	121437.5	boundary	boundary	n/a	n/a	8
