onset	duration	sample	value	event_code	user_answer	correct_answer
0	n/a	0	break cnt	break cnt	n/a	n/a
136.354	n/a	68177	symbolSearch_start	92	n/a	n/a
142.266	n/a	71133	newPage	20	n/a	n/a
149.768	n/a	74884	trialResponse	14	0	0
153.956	n/a	76978	trialResponse	14	1	1
159.02	n/a	79510	trialResponse	14	0	0
163.508	n/a	81754	trialResponse	14	0	0
175.498	n/a	87749	trialResponse	14	0	0
179.964	n/a	89982	trialResponse	14	1	1
184.698	n/a	92349	trialResponse	14	0	0
189.692	n/a	94846	trialResponse	14	1	1
193.866	n/a	96933	trialResponse	14	0	0
198.676	n/a	99338	trialResponse	14	0	0
204.836	n/a	102418	trialResponse	14	0	0
207.612	n/a	103806	trialResponse	14	1	1
210.108	n/a	105054	trialResponse	14	0	0
213.252	n/a	106626	trialResponse	14	1	1
216.786	n/a	108393	trialResponse	14	1	1
218.404	n/a	109202	newPage	20	n/a	n/a
221.834	n/a	110917	trialResponse	14	1	1
224.802	n/a	112401	trialResponse	14	1	1
228.33	n/a	114165	trialResponse	14	0	0
232.85	n/a	116425	trialResponse	14	0	1
241.084	n/a	120542	trialResponse	14	0	0
245.978	n/a	122989	trialResponse	14	1	1
251.146	n/a	125573	trialResponse	14	0	0
256.028	n/a	128014	trialResponse	14	1	1
262.516	n/a	131258	trialResponse	14	1	1
262.536	n/a	131268	newPage	20	n/a	n/a
266.003	n/a	133001.5	boundary	boundary	n/a	n/a
