onset	duration	sample	value	event_code	user_answer	correct_answer
0	n/a	0	break cnt	break cnt	n/a	n/a
26.654	n/a	13327	symbolSearch_start	92	n/a	n/a
29.564	n/a	14782	newPage	20	n/a	n/a
36.656	n/a	18328	trialResponse	14	0	0
42.484	n/a	21242	trialResponse	14	1	1
49.01	n/a	24505	trialResponse	14	0	0
56.242	n/a	28121	trialResponse	14	0	0
60.048	n/a	30024	trialResponse	14	1	0
63.514	n/a	31757	trialResponse	14	1	1
74.098	n/a	37049	trialResponse	14	0	0
78.828	n/a	39414	trialResponse	14	1	1
84.874	n/a	42437	trialResponse	14	0	0
90.18	n/a	45090	trialResponse	14	0	0
96.626	n/a	48313	trialResponse	14	0	0
99.322	n/a	49661	trialResponse	14	1	1
102.858	n/a	51429	trialResponse	14	0	0
105.164	n/a	52582	trialResponse	14	1	1
109.09	n/a	54545	trialResponse	14	1	1
110.036	n/a	55018	newPage	20	n/a	n/a
113.674	n/a	56837	trialResponse	14	1	1
117.412	n/a	58706	trialResponse	14	1	1
122.266	n/a	61133	trialResponse	14	0	0
126.01	n/a	63005	trialResponse	14	1	1
131.618	n/a	65809	trialResponse	14	0	0
137.546	n/a	68773	trialResponse	14	1	1
141.89	n/a	70945	trialResponse	14	0	0
145.244	n/a	72622	trialResponse	14	1	1
149.394	n/a	74697	trialResponse	14	1	1
154.01	n/a	77005	trialResponse	14	0	0
154.02	n/a	77010	newPage	20	n/a	n/a
159.441	n/a	79720.5	boundary	boundary	n/a	n/a
