onset	duration	sample	value	event_code	user_answer	correct_answer	target_count
0	n/a	0	break cnt	break cnt	n/a	n/a	6
42.964	n/a	21482	seqLearning_start	91	n/a	n/a	6
49.232	n/a	24616	learningBlock_1	31	n/a	n/a	6
49.266	n/a	24633	dot_no1_ON	11	n/a	n/a	6
49.854	n/a	24927	dot_no1_OFF	21	n/a	n/a	6
51.174	n/a	25587	dot_no6_ON	16	n/a	n/a	6
51.764	n/a	25882	dot_no6_OFF	26	n/a	n/a	6
53.084	n/a	26542	dot_no4_ON	14	n/a	n/a	6
53.664	n/a	26832	dot_no4_OFF	24	n/a	n/a	6
54.984	n/a	27492	dot_no2_ON	12	n/a	n/a	6
55.564	n/a	27782	dot_no2_OFF	22	n/a	n/a	6
56.884	n/a	28442	dot_no3_ON	13	n/a	n/a	6
57.464	n/a	28732	dot_no3_OFF	23	n/a	n/a	6
58.784	n/a	29392	dot_no5_ON	15	n/a	n/a	6
59.364	n/a	29682	dot_no5_OFF	25	n/a	n/a	6
60.684	n/a	30342	dot_no2_ON	12	n/a	n/a	6
61.264	n/a	30632	dot_no2_OFF	22	1-4-2-3-5-6-4	1-6-4-2-3-5-2	6
109.464	n/a	54732	learningBlock_2	32	n/a	n/a	6
109.472	n/a	54736	dot_no1_ON	11	n/a	n/a	6
110.052	n/a	55026	dot_no1_OFF	21	n/a	n/a	6
111.372	n/a	55686	dot_no6_ON	16	n/a	n/a	6
111.952	n/a	55976	dot_no6_OFF	26	n/a	n/a	6
113.272	n/a	56636	dot_no4_ON	14	n/a	n/a	6
113.852	n/a	56926	dot_no4_OFF	24	n/a	n/a	6
115.172	n/a	57586	dot_no2_ON	12	n/a	n/a	6
115.752	n/a	57876	dot_no2_OFF	22	n/a	n/a	6
117.072	n/a	58536	dot_no3_ON	13	n/a	n/a	6
117.662	n/a	58831	dot_no3_OFF	23	n/a	n/a	6
118.982	n/a	59491	dot_no5_ON	15	n/a	n/a	6
119.562	n/a	59781	dot_no5_OFF	25	n/a	n/a	6
120.882	n/a	60441	dot_no2_ON	12	n/a	n/a	6
121.462	n/a	60731	dot_no2_OFF	22	1-6-5-5-4-3-5	1-6-4-2-3-5-2	6
139.504	n/a	69752	learningBlock_3	33	n/a	n/a	6
139.512	n/a	69756	dot_no1_ON	11	n/a	n/a	6
140.092	n/a	70046	dot_no1_OFF	21	n/a	n/a	6
141.412	n/a	70706	dot_no6_ON	16	n/a	n/a	6
141.992	n/a	70996	dot_no6_OFF	26	n/a	n/a	6
143.312	n/a	71656	dot_no4_ON	14	n/a	n/a	6
143.892	n/a	71946	dot_no4_OFF	24	n/a	n/a	6
145.212	n/a	72606	dot_no2_ON	12	n/a	n/a	6
145.792	n/a	72896	dot_no2_OFF	22	n/a	n/a	6
147.112	n/a	73556	dot_no3_ON	13	n/a	n/a	6
147.692	n/a	73846	dot_no3_OFF	23	n/a	n/a	6
149.012	n/a	74506	dot_no5_ON	15	n/a	n/a	6
149.592	n/a	74796	dot_no5_OFF	25	n/a	n/a	6
150.912	n/a	75456	dot_no2_ON	12	n/a	n/a	6
151.492	n/a	75746	dot_no2_OFF	22	1-6-5-4-3-2-5	1-6-4-2-3-5-2	6
174.154	n/a	87077	learningBlock_4	34	n/a	n/a	6
174.162	n/a	87081	dot_no1_ON	11	n/a	n/a	6
174.752	n/a	87376	dot_no1_OFF	21	n/a	n/a	6
176.072	n/a	88036	dot_no6_ON	16	n/a	n/a	6
176.652	n/a	88326	dot_no6_OFF	26	n/a	n/a	6
177.972	n/a	88986	dot_no4_ON	14	n/a	n/a	6
178.552	n/a	89276	dot_no4_OFF	24	n/a	n/a	6
179.872	n/a	89936	dot_no2_ON	12	n/a	n/a	6
180.452	n/a	90226	dot_no2_OFF	22	n/a	n/a	6
181.772	n/a	90886	dot_no3_ON	13	n/a	n/a	6
182.352	n/a	91176	dot_no3_OFF	23	n/a	n/a	6
183.672	n/a	91836	dot_no5_ON	15	n/a	n/a	6
184.252	n/a	92126	dot_no5_OFF	25	n/a	n/a	6
185.57	n/a	92785	dot_no2_ON	12	n/a	n/a	6
186.152	n/a	93076	dot_no2_OFF	22	1-6-5-4-3-2-5	1-6-4-2-3-5-2	6
211.072	n/a	105536	learningBlock_5	35	n/a	n/a	6
211.09	n/a	105545	dot_no1_ON	11	n/a	n/a	6
211.67	n/a	105835	dot_no1_OFF	21	n/a	n/a	6
212.99	n/a	106495	dot_no6_ON	16	n/a	n/a	6
213.57	n/a	106785	dot_no6_OFF	26	n/a	n/a	6
214.89	n/a	107445	dot_no4_ON	14	n/a	n/a	6
215.47	n/a	107735	dot_no4_OFF	24	n/a	n/a	6
216.79	n/a	108395	dot_no2_ON	12	n/a	n/a	6
217.37	n/a	108685	dot_no2_OFF	22	n/a	n/a	6
218.69	n/a	109345	dot_no3_ON	13	n/a	n/a	6
219.27	n/a	109635	dot_no3_OFF	23	n/a	n/a	6
220.59	n/a	110295	dot_no5_ON	15	n/a	n/a	6
221.17	n/a	110585	dot_no5_OFF	25	n/a	n/a	6
222.49	n/a	111245	dot_no2_ON	12	n/a	n/a	6
223.07	n/a	111535	dot_no2_OFF	22	1-4-3-2-6-5-2	1-6-4-2-3-5-2	6
239.432	n/a	119716	seqLearning_stop	50	n/a	n/a	6
241.833	n/a	120916.5	boundary	boundary	n/a	n/a	6
