onset	duration	sample	value	event_code	user_answer	correct_answer	target_count
0	n/a	0	break cnt	break cnt	n/a	n/a	8
139.354	n/a	69677	seqLearning_start	91	n/a	n/a	8
146.668	n/a	73334	learningBlock_1	31	n/a	n/a	8
146.684	n/a	73342	dot_no1_ON	11	n/a	n/a	8
147.238	n/a	73619	dot_no1_OFF	21	n/a	n/a	8
148.554	n/a	74277	dot_no6_ON	16	n/a	n/a	8
149.106	n/a	74553	dot_no6_OFF	26	n/a	n/a	8
150.42	n/a	75210	dot_no4_ON	14	n/a	n/a	8
150.972	n/a	75486	dot_no4_OFF	24	n/a	n/a	8
152.286	n/a	76143	dot_no2_ON	12	n/a	n/a	8
152.84	n/a	76420	dot_no2_OFF	22	n/a	n/a	8
154.154	n/a	77077	dot_no7_ON	17	n/a	n/a	8
154.706	n/a	77353	dot_no7_OFF	27	n/a	n/a	8
156.02	n/a	78010	dot_no3_ON	13	n/a	n/a	8
156.572	n/a	78286	dot_no3_OFF	23	n/a	n/a	8
157.886	n/a	78943	dot_no8_ON	18	n/a	n/a	8
158.436	n/a	79218	dot_no8_OFF	28	n/a	n/a	8
159.752	n/a	79876	dot_no5_ON	15	n/a	n/a	8
160.302	n/a	80151	dot_no5_OFF	25	n/a	n/a	8
161.616	n/a	80808	dot_no2_ON	12	n/a	n/a	8
162.168	n/a	81084	dot_no2_OFF	22	n/a	n/a	8
163.482	n/a	81741	dot_no7_ON	17	n/a	n/a	8
164.032	n/a	82016	dot_no7_OFF	27	1-6-4-2-7-3-5-7-8-5	1-6-4-2-7-3-8-5-2-7	8
198.804	n/a	99402	learningBlock_2	32	n/a	n/a	8
198.81	n/a	99405	dot_no1_ON	11	n/a	n/a	8
199.362	n/a	99681	dot_no1_OFF	21	n/a	n/a	8
200.678	n/a	100339	dot_no6_ON	16	n/a	n/a	8
201.23	n/a	100615	dot_no6_OFF	26	n/a	n/a	8
202.544	n/a	101272	dot_no4_ON	14	n/a	n/a	8
203.096	n/a	101548	dot_no4_OFF	24	n/a	n/a	8
204.41	n/a	102205	dot_no2_ON	12	n/a	n/a	8
204.96	n/a	102480	dot_no2_OFF	22	n/a	n/a	8
206.274	n/a	103137	dot_no7_ON	17	n/a	n/a	8
206.824	n/a	103412	dot_no7_OFF	27	n/a	n/a	8
208.138	n/a	104069	dot_no3_ON	13	n/a	n/a	8
208.69	n/a	104345	dot_no3_OFF	23	n/a	n/a	8
210.004	n/a	105002	dot_no8_ON	18	n/a	n/a	8
210.556	n/a	105278	dot_no8_OFF	28	n/a	n/a	8
211.87	n/a	105935	dot_no5_ON	15	n/a	n/a	8
212.422	n/a	106211	dot_no5_OFF	25	n/a	n/a	8
213.738	n/a	106869	dot_no2_ON	12	n/a	n/a	8
214.288	n/a	107144	dot_no2_OFF	22	n/a	n/a	8
215.602	n/a	107801	dot_no7_ON	17	n/a	n/a	8
216.154	n/a	108077	dot_no7_OFF	27	1-6-4-3-8-5-2-7-1-1	1-6-4-2-7-3-8-5-2-7	8
242.746	n/a	121373	learningBlock_3	33	n/a	n/a	8
242.754	n/a	121377	dot_no1_ON	11	n/a	n/a	8
243.304	n/a	121652	dot_no1_OFF	21	n/a	n/a	8
244.618	n/a	122309	dot_no6_ON	16	n/a	n/a	8
245.17	n/a	122585	dot_no6_OFF	26	n/a	n/a	8
246.484	n/a	123242	dot_no4_ON	14	n/a	n/a	8
247.036	n/a	123518	dot_no4_OFF	24	n/a	n/a	8
248.348	n/a	124174	dot_no2_ON	12	n/a	n/a	8
248.904	n/a	124452	dot_no2_OFF	22	n/a	n/a	8
250.218	n/a	125109	dot_no7_ON	17	n/a	n/a	8
250.768	n/a	125384	dot_no7_OFF	27	n/a	n/a	8
252.082	n/a	126041	dot_no3_ON	13	n/a	n/a	8
252.636	n/a	126318	dot_no3_OFF	23	n/a	n/a	8
253.95	n/a	126975	dot_no8_ON	18	n/a	n/a	8
254.5	n/a	127250	dot_no8_OFF	28	n/a	n/a	8
255.814	n/a	127907	dot_no5_ON	15	n/a	n/a	8
256.366	n/a	128183	dot_no5_OFF	25	n/a	n/a	8
257.68	n/a	128840	dot_no2_ON	12	n/a	n/a	8
258.232	n/a	129116	dot_no2_OFF	22	n/a	n/a	8
259.544	n/a	129772	dot_no7_ON	17	n/a	n/a	8
260.096	n/a	130048	dot_no7_OFF	27	1-6-4-2-8-8-5-7-3-7	1-6-4-2-7-3-8-5-2-7	8
279.946	n/a	139973	learningBlock_4	34	n/a	n/a	8
279.954	n/a	139977	dot_no1_ON	11	n/a	n/a	8
280.506	n/a	140253	dot_no1_OFF	21	n/a	n/a	8
281.82	n/a	140910	dot_no6_ON	16	n/a	n/a	8
282.37	n/a	141185	dot_no6_OFF	26	n/a	n/a	8
283.684	n/a	141842	dot_no4_ON	14	n/a	n/a	8
284.238	n/a	142119	dot_no4_OFF	24	n/a	n/a	8
285.552	n/a	142776	dot_no2_ON	12	n/a	n/a	8
286.102	n/a	143051	dot_no2_OFF	22	n/a	n/a	8
287.416	n/a	143708	dot_no7_ON	17	n/a	n/a	8
287.968	n/a	143984	dot_no7_OFF	27	n/a	n/a	8
289.282	n/a	144641	dot_no3_ON	13	n/a	n/a	8
289.834	n/a	144917	dot_no3_OFF	23	n/a	n/a	8
291.148	n/a	145574	dot_no8_ON	18	n/a	n/a	8
291.7	n/a	145850	dot_no8_OFF	28	n/a	n/a	8
293.014	n/a	146507	dot_no5_ON	15	n/a	n/a	8
293.562	n/a	146781	dot_no5_OFF	25	n/a	n/a	8
294.876	n/a	147438	dot_no2_ON	12	n/a	n/a	8
295.428	n/a	147714	dot_no2_OFF	22	n/a	n/a	8
296.742	n/a	148371	dot_no7_ON	17	n/a	n/a	8
297.294	n/a	148647	dot_no7_OFF	27	6-4-2-3-8-5-1-7-6-6	1-6-4-2-7-3-8-5-2-7	8
320.314	n/a	160157	learningBlock_5	35	n/a	n/a	8
320.322	n/a	160161	dot_no1_ON	11	n/a	n/a	8
320.876	n/a	160438	dot_no1_OFF	21	n/a	n/a	8
322.19	n/a	161095	dot_no6_ON	16	n/a	n/a	8
322.744	n/a	161372	dot_no6_OFF	26	n/a	n/a	8
324.058	n/a	162029	dot_no4_ON	14	n/a	n/a	8
324.61	n/a	162305	dot_no4_OFF	24	n/a	n/a	8
325.924	n/a	162962	dot_no2_ON	12	n/a	n/a	8
326.476	n/a	163238	dot_no2_OFF	22	n/a	n/a	8
327.79	n/a	163895	dot_no7_ON	17	n/a	n/a	8
328.342	n/a	164171	dot_no7_OFF	27	n/a	n/a	8
329.654	n/a	164827	dot_no3_ON	13	n/a	n/a	8
330.208	n/a	165104	dot_no3_OFF	23	n/a	n/a	8
331.52	n/a	165760	dot_no8_ON	18	n/a	n/a	8
332.072	n/a	166036	dot_no8_OFF	28	n/a	n/a	8
333.386	n/a	166693	dot_no5_ON	15	n/a	n/a	8
333.936	n/a	166968	dot_no5_OFF	25	n/a	n/a	8
335.25	n/a	167625	dot_no2_ON	12	n/a	n/a	8
335.802	n/a	167901	dot_no2_OFF	22	n/a	n/a	8
337.116	n/a	168558	dot_no7_ON	17	n/a	n/a	8
337.688	n/a	168844	dot_no7_OFF	27	0-1-0-8-6-3-2-8-7-5	1-6-4-2-7-3-8-5-2-7	8
371.264	n/a	185632	seqLearning_stop	50	n/a	n/a	8
372.657	n/a	186328.5	boundary	boundary	n/a	n/a	8
