onset	duration	sample	value	event_code	user_answer	correct_answer	target_count
0	n/a	0	break cnt	break cnt	n/a	n/a	8
31.97	n/a	15985	seqLearning_start	91	n/a	n/a	8
38.224	n/a	19112	learningBlock_1	31	n/a	n/a	8
38.362	n/a	19181	dot_no1_ON	11	n/a	n/a	8
38.952	n/a	19476	dot_no1_OFF	21	n/a	n/a	8
40.27	n/a	20135	dot_no6_ON	16	n/a	n/a	8
40.85	n/a	20425	dot_no6_OFF	26	n/a	n/a	8
42.17	n/a	21085	dot_no4_ON	14	n/a	n/a	8
42.75	n/a	21375	dot_no4_OFF	24	n/a	n/a	8
44.07	n/a	22035	dot_no2_ON	12	n/a	n/a	8
44.65	n/a	22325	dot_no2_OFF	22	n/a	n/a	8
45.97	n/a	22985	dot_no7_ON	17	n/a	n/a	8
46.55	n/a	23275	dot_no7_OFF	27	n/a	n/a	8
47.87	n/a	23935	dot_no3_ON	13	n/a	n/a	8
48.45	n/a	24225	dot_no3_OFF	23	n/a	n/a	8
49.77	n/a	24885	dot_no8_ON	18	n/a	n/a	8
50.36	n/a	25180	dot_no8_OFF	28	n/a	n/a	8
51.68	n/a	25840	dot_no5_ON	15	n/a	n/a	8
52.27	n/a	26135	dot_no5_OFF	25	n/a	n/a	8
53.59	n/a	26795	dot_no2_ON	12	n/a	n/a	8
54.182	n/a	27091	dot_no2_OFF	22	n/a	n/a	8
55.5	n/a	27750	dot_no7_ON	17	n/a	n/a	8
56.08	n/a	28040	dot_no7_OFF	27	1-6-8-5-4-1-7-2-8-6	1-6-4-2-7-3-8-5-2-7	8
87.564	n/a	43782	learningBlock_2	32	n/a	n/a	8
87.572	n/a	43786	dot_no1_ON	11	n/a	n/a	8
88.152	n/a	44076	dot_no1_OFF	21	n/a	n/a	8
89.472	n/a	44736	dot_no6_ON	16	n/a	n/a	8
90.052	n/a	45026	dot_no6_OFF	26	n/a	n/a	8
91.372	n/a	45686	dot_no4_ON	14	n/a	n/a	8
91.962	n/a	45981	dot_no4_OFF	24	n/a	n/a	8
93.282	n/a	46641	dot_no2_ON	12	n/a	n/a	8
93.862	n/a	46931	dot_no2_OFF	22	n/a	n/a	8
95.182	n/a	47591	dot_no7_ON	17	n/a	n/a	8
95.762	n/a	47881	dot_no7_OFF	27	n/a	n/a	8
97.082	n/a	48541	dot_no3_ON	13	n/a	n/a	8
97.662	n/a	48831	dot_no3_OFF	23	n/a	n/a	8
98.982	n/a	49491	dot_no8_ON	18	n/a	n/a	8
99.562	n/a	49781	dot_no8_OFF	28	n/a	n/a	8
100.882	n/a	50441	dot_no5_ON	15	n/a	n/a	8
101.462	n/a	50731	dot_no5_OFF	25	n/a	n/a	8
102.782	n/a	51391	dot_no2_ON	12	n/a	n/a	8
103.362	n/a	51681	dot_no2_OFF	22	n/a	n/a	8
104.682	n/a	52341	dot_no7_ON	17	n/a	n/a	8
105.272	n/a	52636	dot_no7_OFF	27	2-4-6-1-5-7-8-1-2-7	1-6-4-2-7-3-8-5-2-7	8
134.604	n/a	67302	learningBlock_3	33	n/a	n/a	8
134.612	n/a	67306	dot_no1_ON	11	n/a	n/a	8
135.192	n/a	67596	dot_no1_OFF	21	n/a	n/a	8
136.514	n/a	68257	dot_no6_ON	16	n/a	n/a	8
137.102	n/a	68551	dot_no6_OFF	26	n/a	n/a	8
138.422	n/a	69211	dot_no4_ON	14	n/a	n/a	8
139.002	n/a	69501	dot_no4_OFF	24	n/a	n/a	8
140.322	n/a	70161	dot_no2_ON	12	n/a	n/a	8
140.902	n/a	70451	dot_no2_OFF	22	n/a	n/a	8
142.222	n/a	71111	dot_no7_ON	17	n/a	n/a	8
142.812	n/a	71406	dot_no7_OFF	27	n/a	n/a	8
144.132	n/a	72066	dot_no3_ON	13	n/a	n/a	8
144.712	n/a	72356	dot_no3_OFF	23	n/a	n/a	8
146.032	n/a	73016	dot_no8_ON	18	n/a	n/a	8
146.612	n/a	73306	dot_no8_OFF	28	n/a	n/a	8
147.932	n/a	73966	dot_no5_ON	15	n/a	n/a	8
148.512	n/a	74256	dot_no5_OFF	25	n/a	n/a	8
149.832	n/a	74916	dot_no2_ON	12	n/a	n/a	8
150.412	n/a	75206	dot_no2_OFF	22	n/a	n/a	8
151.732	n/a	75866	dot_no7_ON	17	n/a	n/a	8
152.312	n/a	76156	dot_no7_OFF	27	1-6-2-4-8-2-4-5-3-7	1-6-4-2-7-3-8-5-2-7	8
181.276	n/a	90638	learningBlock_4	34	n/a	n/a	8
181.284	n/a	90642	dot_no1_ON	11	n/a	n/a	8
181.864	n/a	90932	dot_no1_OFF	21	n/a	n/a	8
183.184	n/a	91592	dot_no6_ON	16	n/a	n/a	8
183.764	n/a	91882	dot_no6_OFF	26	n/a	n/a	8
185.084	n/a	92542	dot_no4_ON	14	n/a	n/a	8
185.664	n/a	92832	dot_no4_OFF	24	n/a	n/a	8
186.984	n/a	93492	dot_no2_ON	12	n/a	n/a	8
187.564	n/a	93782	dot_no2_OFF	22	n/a	n/a	8
188.884	n/a	94442	dot_no7_ON	17	n/a	n/a	8
189.474	n/a	94737	dot_no7_OFF	27	n/a	n/a	8
190.794	n/a	95397	dot_no3_ON	13	n/a	n/a	8
191.384	n/a	95692	dot_no3_OFF	23	n/a	n/a	8
192.704	n/a	96352	dot_no8_ON	18	n/a	n/a	8
193.284	n/a	96642	dot_no8_OFF	28	n/a	n/a	8
194.604	n/a	97302	dot_no5_ON	15	n/a	n/a	8
195.184	n/a	97592	dot_no5_OFF	25	n/a	n/a	8
196.504	n/a	98252	dot_no2_ON	12	n/a	n/a	8
197.084	n/a	98542	dot_no2_OFF	22	n/a	n/a	8
198.404	n/a	99202	dot_no7_ON	17	n/a	n/a	8
198.984	n/a	99492	dot_no7_OFF	27	6-2-1-5-6-2-8-6-7-3	1-6-4-2-7-3-8-5-2-7	8
234.188	n/a	117094	learningBlock_5	35	n/a	n/a	8
234.194	n/a	117097	dot_no1_ON	11	n/a	n/a	8
234.774	n/a	117387	dot_no1_OFF	21	n/a	n/a	8
236.094	n/a	118047	dot_no6_ON	16	n/a	n/a	8
236.674	n/a	118337	dot_no6_OFF	26	n/a	n/a	8
237.994	n/a	118997	dot_no4_ON	14	n/a	n/a	8
238.574	n/a	119287	dot_no4_OFF	24	n/a	n/a	8
239.896	n/a	119948	dot_no2_ON	12	n/a	n/a	8
240.474	n/a	120237	dot_no2_OFF	22	n/a	n/a	8
241.796	n/a	120898	dot_no7_ON	17	n/a	n/a	8
242.376	n/a	121188	dot_no7_OFF	27	n/a	n/a	8
243.696	n/a	121848	dot_no3_ON	13	n/a	n/a	8
244.276	n/a	122138	dot_no3_OFF	23	n/a	n/a	8
245.596	n/a	122798	dot_no8_ON	18	n/a	n/a	8
246.186	n/a	123093	dot_no8_OFF	28	n/a	n/a	8
247.506	n/a	123753	dot_no5_ON	15	n/a	n/a	8
248.086	n/a	124043	dot_no5_OFF	25	n/a	n/a	8
249.406	n/a	124703	dot_no2_ON	12	n/a	n/a	8
249.986	n/a	124993	dot_no2_OFF	22	n/a	n/a	8
251.306	n/a	125653	dot_no7_ON	17	n/a	n/a	8
251.886	n/a	125943	dot_no7_OFF	27	2-1-5-8-6-7-4-2-8-5	1-6-4-2-7-3-8-5-2-7	8
286.888	n/a	143444	seqLearning_stop	50	n/a	n/a	8
289.825	n/a	144912.5	boundary	boundary	n/a	n/a	8
