onset	duration	sample	value	event_code	user_answer	correct_answer	target_count
0	n/a	0	break cnt	break cnt	n/a	n/a	8
129.416	n/a	64708	seqLearning_start	91	n/a	n/a	8
138.736	n/a	69368	learningBlock_1	31	n/a	n/a	8
138.754	n/a	69377	dot_no1_ON	11	n/a	n/a	8
139.344	n/a	69672	dot_no1_OFF	21	n/a	n/a	8
140.664	n/a	70332	dot_no6_ON	16	n/a	n/a	8
141.252	n/a	70626	dot_no6_OFF	26	n/a	n/a	8
142.574	n/a	71287	dot_no4_ON	14	n/a	n/a	8
143.162	n/a	71581	dot_no4_OFF	24	n/a	n/a	8
144.482	n/a	72241	dot_no2_ON	12	n/a	n/a	8
145.072	n/a	72536	dot_no2_OFF	22	n/a	n/a	8
146.394	n/a	73197	dot_no7_ON	17	n/a	n/a	8
146.982	n/a	73491	dot_no7_OFF	27	n/a	n/a	8
148.304	n/a	74152	dot_no3_ON	13	n/a	n/a	8
148.892	n/a	74446	dot_no3_OFF	23	n/a	n/a	8
150.212	n/a	75106	dot_no8_ON	18	n/a	n/a	8
150.802	n/a	75401	dot_no8_OFF	28	n/a	n/a	8
152.122	n/a	76061	dot_no5_ON	15	n/a	n/a	8
152.712	n/a	76356	dot_no5_OFF	25	n/a	n/a	8
154.032	n/a	77016	dot_no2_ON	12	n/a	n/a	8
154.622	n/a	77311	dot_no2_OFF	22	n/a	n/a	8
155.944	n/a	77972	dot_no7_ON	17	n/a	n/a	8
156.532	n/a	78266	dot_no7_OFF	27	1-6-8-3-5-2-7-4-8-5	1-6-4-2-7-3-8-5-2-7	8
204.4	n/a	102200	learningBlock_2	32	n/a	n/a	8
204.414	n/a	102207	dot_no1_ON	11	n/a	n/a	8
205.002	n/a	102501	dot_no1_OFF	21	n/a	n/a	8
206.324	n/a	103162	dot_no6_ON	16	n/a	n/a	8
206.912	n/a	103456	dot_no6_OFF	26	n/a	n/a	8
208.234	n/a	104117	dot_no4_ON	14	n/a	n/a	8
208.822	n/a	104411	dot_no4_OFF	24	n/a	n/a	8
210.144	n/a	105072	dot_no2_ON	12	n/a	n/a	8
210.732	n/a	105366	dot_no2_OFF	22	n/a	n/a	8
212.054	n/a	106027	dot_no7_ON	17	n/a	n/a	8
212.642	n/a	106321	dot_no7_OFF	27	n/a	n/a	8
213.964	n/a	106982	dot_no3_ON	13	n/a	n/a	8
214.552	n/a	107276	dot_no3_OFF	23	n/a	n/a	8
215.874	n/a	107937	dot_no8_ON	18	n/a	n/a	8
216.462	n/a	108231	dot_no8_OFF	28	n/a	n/a	8
217.784	n/a	108892	dot_no5_ON	15	n/a	n/a	8
218.374	n/a	109187	dot_no5_OFF	25	n/a	n/a	8
219.694	n/a	109847	dot_no2_ON	12	n/a	n/a	8
220.282	n/a	110141	dot_no2_OFF	22	n/a	n/a	8
221.604	n/a	110802	dot_no7_ON	17	n/a	n/a	8
222.192	n/a	111096	dot_no7_OFF	27	1-6-2-4-3-7-8-5-6-5	1-6-4-2-7-3-8-5-2-7	8
254.168	n/a	127084	learningBlock_3	33	n/a	n/a	8
254.184	n/a	127092	dot_no1_ON	11	n/a	n/a	8
254.774	n/a	127387	dot_no1_OFF	21	n/a	n/a	8
256.094	n/a	128047	dot_no6_ON	16	n/a	n/a	8
256.682	n/a	128341	dot_no6_OFF	26	n/a	n/a	8
258.004	n/a	129002	dot_no4_ON	14	n/a	n/a	8
258.594	n/a	129297	dot_no4_OFF	24	n/a	n/a	8
259.914	n/a	129957	dot_no2_ON	12	n/a	n/a	8
260.502	n/a	130251	dot_no2_OFF	22	n/a	n/a	8
261.824	n/a	130912	dot_no7_ON	17	n/a	n/a	8
262.414	n/a	131207	dot_no7_OFF	27	n/a	n/a	8
263.734	n/a	131867	dot_no3_ON	13	n/a	n/a	8
264.322	n/a	132161	dot_no3_OFF	23	n/a	n/a	8
265.644	n/a	132822	dot_no8_ON	18	n/a	n/a	8
266.232	n/a	133116	dot_no8_OFF	28	n/a	n/a	8
267.554	n/a	133777	dot_no5_ON	15	n/a	n/a	8
268.142	n/a	134071	dot_no5_OFF	25	n/a	n/a	8
269.464	n/a	134732	dot_no2_ON	12	n/a	n/a	8
270.054	n/a	135027	dot_no2_OFF	22	n/a	n/a	8
271.374	n/a	135687	dot_no7_ON	17	n/a	n/a	8
271.962	n/a	135981	dot_no7_OFF	27	7-7-1-4-5-2-3-6-7-8	1-6-4-2-7-3-8-5-2-7	8
297.58	n/a	148790	learningBlock_4	34	n/a	n/a	8
297.594	n/a	148797	dot_no1_ON	11	n/a	n/a	8
298.184	n/a	149092	dot_no1_OFF	21	n/a	n/a	8
299.504	n/a	149752	dot_no6_ON	16	n/a	n/a	8
300.092	n/a	150046	dot_no6_OFF	26	n/a	n/a	8
301.414	n/a	150707	dot_no4_ON	14	n/a	n/a	8
302.004	n/a	151002	dot_no4_OFF	24	n/a	n/a	8
303.324	n/a	151662	dot_no2_ON	12	n/a	n/a	8
303.912	n/a	151956	dot_no2_OFF	22	n/a	n/a	8
305.234	n/a	152617	dot_no7_ON	17	n/a	n/a	8
305.822	n/a	152911	dot_no7_OFF	27	n/a	n/a	8
307.144	n/a	153572	dot_no3_ON	13	n/a	n/a	8
307.734	n/a	153867	dot_no3_OFF	23	n/a	n/a	8
309.054	n/a	154527	dot_no8_ON	18	n/a	n/a	8
309.644	n/a	154822	dot_no8_OFF	28	n/a	n/a	8
310.964	n/a	155482	dot_no5_ON	15	n/a	n/a	8
311.554	n/a	155777	dot_no5_OFF	25	n/a	n/a	8
312.874	n/a	156437	dot_no2_ON	12	n/a	n/a	8
313.464	n/a	156732	dot_no2_OFF	22	n/a	n/a	8
314.784	n/a	157392	dot_no7_ON	17	n/a	n/a	8
315.374	n/a	157687	dot_no7_OFF	27	1-4-3-7-3-7-2-5-6-5	1-6-4-2-7-3-8-5-2-7	8
346.95	n/a	173475	learningBlock_5	35	n/a	n/a	8
346.964	n/a	173482	dot_no1_ON	11	n/a	n/a	8
347.554	n/a	173777	dot_no1_OFF	21	n/a	n/a	8
348.874	n/a	174437	dot_no6_ON	16	n/a	n/a	8
349.464	n/a	174732	dot_no6_OFF	26	n/a	n/a	8
350.784	n/a	175392	dot_no4_ON	14	n/a	n/a	8
351.374	n/a	175687	dot_no4_OFF	24	n/a	n/a	8
352.694	n/a	176347	dot_no2_ON	12	n/a	n/a	8
353.284	n/a	176642	dot_no2_OFF	22	n/a	n/a	8
354.604	n/a	177302	dot_no7_ON	17	n/a	n/a	8
355.194	n/a	177597	dot_no7_OFF	27	n/a	n/a	8
356.514	n/a	178257	dot_no3_ON	13	n/a	n/a	8
357.104	n/a	178552	dot_no3_OFF	23	n/a	n/a	8
358.424	n/a	179212	dot_no8_ON	18	n/a	n/a	8
359.014	n/a	179507	dot_no8_OFF	28	n/a	n/a	8
360.334	n/a	180167	dot_no5_ON	15	n/a	n/a	8
360.924	n/a	180462	dot_no5_OFF	25	n/a	n/a	8
362.244	n/a	181122	dot_no2_ON	12	n/a	n/a	8
362.834	n/a	181417	dot_no2_OFF	22	n/a	n/a	8
364.154	n/a	182077	dot_no7_ON	17	n/a	n/a	8
364.744	n/a	182372	dot_no7_OFF	27	2-5-4-3-2-1-8-7-6-6	1-6-4-2-7-3-8-5-2-7	8
385.744	n/a	192872	seqLearning_stop	50	n/a	n/a	8
386.903	n/a	193451.5	boundary	boundary	n/a	n/a	8
