onset	duration	sample	value	event_code	user_answer	correct_answer	target_count
0	n/a	0	break cnt	break cnt	n/a	n/a	6
144.278	n/a	72139	seqLearning_start	91	n/a	n/a	6
153.612	n/a	76806	learningBlock_1	31	n/a	n/a	6
153.63	n/a	76815	dot_no1_ON	11	n/a	n/a	6
154.218	n/a	77109	dot_no1_OFF	21	n/a	n/a	6
155.538	n/a	77769	dot_no6_ON	16	n/a	n/a	6
156.13	n/a	78065	dot_no6_OFF	26	n/a	n/a	6
157.45	n/a	78725	dot_no4_ON	14	n/a	n/a	6
158.038	n/a	79019	dot_no4_OFF	24	n/a	n/a	6
159.36	n/a	79680	dot_no2_ON	12	n/a	n/a	6
159.948	n/a	79974	dot_no2_OFF	22	n/a	n/a	6
161.27	n/a	80635	dot_no3_ON	13	n/a	n/a	6
161.858	n/a	80929	dot_no3_OFF	23	n/a	n/a	6
163.18	n/a	81590	dot_no5_ON	15	n/a	n/a	6
163.77	n/a	81885	dot_no5_OFF	25	n/a	n/a	6
165.09	n/a	82545	dot_no2_ON	12	n/a	n/a	6
165.678	n/a	82839	dot_no2_OFF	22	1-4-2-3-5-3-6	1-6-4-2-3-5-2	6
198.882	n/a	99441	learningBlock_2	32	n/a	n/a	6
198.89	n/a	99445	dot_no1_ON	11	n/a	n/a	6
199.478	n/a	99739	dot_no1_OFF	21	n/a	n/a	6
200.8	n/a	100400	dot_no6_ON	16	n/a	n/a	6
201.39	n/a	100695	dot_no6_OFF	26	n/a	n/a	6
202.71	n/a	101355	dot_no4_ON	14	n/a	n/a	6
203.298	n/a	101649	dot_no4_OFF	24	n/a	n/a	6
204.62	n/a	102310	dot_no2_ON	12	n/a	n/a	6
205.208	n/a	102604	dot_no2_OFF	22	n/a	n/a	6
206.53	n/a	103265	dot_no3_ON	13	n/a	n/a	6
207.118	n/a	103559	dot_no3_OFF	23	n/a	n/a	6
208.44	n/a	104220	dot_no5_ON	15	n/a	n/a	6
209.028	n/a	104514	dot_no5_OFF	25	n/a	n/a	6
210.35	n/a	105175	dot_no2_ON	12	n/a	n/a	6
210.938	n/a	105469	dot_no2_OFF	22	1-2-6-4-3-5-3	1-6-4-2-3-5-2	6
240.736	n/a	120368	learningBlock_3	33	n/a	n/a	6
240.75	n/a	120375	dot_no1_ON	11	n/a	n/a	6
241.34	n/a	120670	dot_no1_OFF	21	n/a	n/a	6
242.66	n/a	121330	dot_no6_ON	16	n/a	n/a	6
243.248	n/a	121624	dot_no6_OFF	26	n/a	n/a	6
244.57	n/a	122285	dot_no4_ON	14	n/a	n/a	6
245.16	n/a	122580	dot_no4_OFF	24	n/a	n/a	6
246.48	n/a	123240	dot_no2_ON	12	n/a	n/a	6
247.07	n/a	123535	dot_no2_OFF	22	n/a	n/a	6
248.39	n/a	124195	dot_no3_ON	13	n/a	n/a	6
248.978	n/a	124489	dot_no3_OFF	23	n/a	n/a	6
250.298	n/a	125149	dot_no5_ON	15	n/a	n/a	6
250.888	n/a	125444	dot_no5_OFF	25	n/a	n/a	6
252.21	n/a	126105	dot_no2_ON	12	n/a	n/a	6
252.8	n/a	126400	dot_no2_OFF	22	1-6-3-5-4-2-3	1-6-4-2-3-5-2	6
279.638	n/a	139819	learningBlock_4	34	n/a	n/a	6
279.65	n/a	139825	dot_no1_ON	11	n/a	n/a	6
280.238	n/a	140119	dot_no1_OFF	21	n/a	n/a	6
281.56	n/a	140780	dot_no6_ON	16	n/a	n/a	6
282.148	n/a	141074	dot_no6_OFF	26	n/a	n/a	6
283.47	n/a	141735	dot_no4_ON	14	n/a	n/a	6
284.058	n/a	142029	dot_no4_OFF	24	n/a	n/a	6
285.38	n/a	142690	dot_no2_ON	12	n/a	n/a	6
285.97	n/a	142985	dot_no2_OFF	22	n/a	n/a	6
287.29	n/a	143645	dot_no3_ON	13	n/a	n/a	6
287.878	n/a	143939	dot_no3_OFF	23	n/a	n/a	6
289.2	n/a	144600	dot_no5_ON	15	n/a	n/a	6
289.788	n/a	144894	dot_no5_OFF	25	n/a	n/a	6
291.11	n/a	145555	dot_no2_ON	12	n/a	n/a	6
291.698	n/a	145849	dot_no2_OFF	22	1-6-3-2-5-3-4	1-6-4-2-3-5-2	6
319.228	n/a	159614	learningBlock_5	35	n/a	n/a	6
319.24	n/a	159620	dot_no1_ON	11	n/a	n/a	6
319.83	n/a	159915	dot_no1_OFF	21	n/a	n/a	6
321.15	n/a	160575	dot_no6_ON	16	n/a	n/a	6
321.738	n/a	160869	dot_no6_OFF	26	n/a	n/a	6
323.06	n/a	161530	dot_no4_ON	14	n/a	n/a	6
323.648	n/a	161824	dot_no4_OFF	24	n/a	n/a	6
324.97	n/a	162485	dot_no2_ON	12	n/a	n/a	6
325.56	n/a	162780	dot_no2_OFF	22	n/a	n/a	6
326.88	n/a	163440	dot_no3_ON	13	n/a	n/a	6
327.468	n/a	163734	dot_no3_OFF	23	n/a	n/a	6
328.79	n/a	164395	dot_no5_ON	15	n/a	n/a	6
329.38	n/a	164690	dot_no5_OFF	25	n/a	n/a	6
330.7	n/a	165350	dot_no2_ON	12	n/a	n/a	6
331.288	n/a	165644	dot_no2_OFF	22	1-6-4-2-5-3-2	1-6-4-2-3-5-2	6
359.962	n/a	179981	seqLearning_stop	50	n/a	n/a	6
361.007	n/a	180503.5	boundary	boundary	n/a	n/a	6
